,trialNum,condition,correct,family,gameID,response,rt,target,distractor1,distractor2
0,0,pragmatic,1,triplet_806,7191-4269f496-a149-46bc-bd18-1b0400bfe396,a339a318c8a40fd4eebb133aa4be217e,3270,deb0889d902f08bef51f77a6d7299806,304efa07923fc3c1c681404257d94ad9,38bdba5f6455c5ff91663a74ccd2338
1,1,literal,1,triplet_288,7191-4269f496-a149-46bc-bd18-1b0400bfe396,3ff53879d12a2259cf004563556ddb36,3288,deb0889d902f08bef51f77a6d7299806,304efa07923fc3c1c681404257d94ad9,38bdba5f6455c5ff91663a74ccd2338
2,2,literal,1,triplet_1023,7191-4269f496-a149-46bc-bd18-1b0400bfe396,d670d3919c87c91cf1783a44a88d6274,3551,deb0889d902f08bef51f77a6d7299806,304efa07923fc3c1c681404257d94ad9,38bdba5f6455c5ff91663a74ccd2338
3,3,pragmatic,1,triplet_849,7191-4269f496-a149-46bc-bd18-1b0400bfe396,ac47b4d30b598978d5a4a04ac21f0578,4473,deb0889d902f08bef51f77a6d7299806,304efa07923fc3c1c681404257d94ad9,38bdba5f6455c5ff91663a74ccd2338
4,4,literal,1,triplet_961,7191-4269f496-a149-46bc-bd18-1b0400bfe396,c88eb06478809180f7628281ecb18112,2899,deb0889d902f08bef51f77a6d7299806,304efa07923fc3c1c681404257d94ad9,38bdba5f6455c5ff91663a74ccd2338
5,5,literal,1,triplet_828,7191-4269f496-a149-46bc-bd18-1b0400bfe396,a800bd725fe116447a84e76181a9e08f,2541,deb0889d902f08bef51f77a6d7299806,304efa07923fc3c1c681404257d94ad9,38bdba5f6455c5ff91663a74ccd2338
6,6,literal,0,triplet_513,7191-4269f496-a149-46bc-bd18-1b0400bfe396,9bb6d3d76d4f5ba94b3c42e318f3affc,1892,deb0889d902f08bef51f77a6d7299806,304efa07923fc3c1c681404257d94ad9,38bdba5f6455c5ff91663a74ccd2338
7,7,pragmatic,0,triplet_881,7191-4269f496-a149-46bc-bd18-1b0400bfe396,115b11a77b8d8c3c110a27d1d78196,1648,deb0889d902f08bef51f77a6d7299806,304efa07923fc3c1c681404257d94ad9,38bdba5f6455c5ff91663a74ccd2338
8,8,pragmatic,1,triplet_71,7191-4269f496-a149-46bc-bd18-1b0400bfe396,21e0ce3ed3e9452c93271d2223fe04be,3167,deb0889d902f08bef51f77a6d7299806,304efa07923fc3c1c681404257d94ad9,38bdba5f6455c5ff91663a74ccd2338
9,9,literal,0,triplet_49,7191-4269f496-a149-46bc-bd18-1b0400bfe396,3b88922c44e2311519fb4103277a6b93,2024,deb0889d902f08bef51f77a6d7299806,304efa07923fc3c1c681404257d94ad9,38bdba5f6455c5ff91663a74ccd2338
10,10,literal,1,triplet_181,7191-4269f496-a149-46bc-bd18-1b0400bfe396,30cc0df021a947e9706ce6d0dff37e85,1902,deb0889d902f08bef51f77a6d7299806,304efa07923fc3c1c681404257d94ad9,38bdba5f6455c5ff91663a74ccd2338
11,11,literal,0,triplet_400,7191-4269f496-a149-46bc-bd18-1b0400bfe396,200324d0bafb1c2e19fb4103277a6b93,1661,deb0889d902f08bef51f77a6d7299806,304efa07923fc3c1c681404257d94ad9,38bdba5f6455c5ff91663a74ccd2338
12,12,pragmatic,0,triplet_535,7191-4269f496-a149-46bc-bd18-1b0400bfe396,5e44499940fc3dbe57a847db7547c1f3,1985,deb0889d902f08bef51f77a6d7299806,304efa07923fc3c1c681404257d94ad9,38bdba5f6455c5ff91663a74ccd2338
13,13,pragmatic,0,triplet_5,7191-4269f496-a149-46bc-bd18-1b0400bfe396,f4268a28d2a837a1167c009da6daa010,2253,deb0889d902f08bef51f77a6d7299806,304efa07923fc3c1c681404257d94ad9,38bdba5f6455c5ff91663a74ccd2338
14,14,literal,0,triplet_119,7191-4269f496-a149-46bc-bd18-1b0400bfe396,e0276adea0d4f4bf1783a44a88d6274,2016,deb0889d902f08bef51f77a6d7299806,304efa07923fc3c1c681404257d94ad9,38bdba5f6455c5ff91663a74ccd2338
15,15,literal,0,triplet_646,7191-4269f496-a149-46bc-bd18-1b0400bfe396,7fbde9d7cd67587712ad7c55c944504a,2208,deb0889d902f08bef51f77a6d7299806,304efa07923fc3c1c681404257d94ad9,38bdba5f6455c5ff91663a74ccd2338
16,16,literal,0,triplet_1151,7191-4269f496-a149-46bc-bd18-1b0400bfe396,561d50862a2cb4aabc19762eaa7ba40f,2273,deb0889d902f08bef51f77a6d7299806,304efa07923fc3c1c681404257d94ad9,38bdba5f6455c5ff91663a74ccd2338
17,17,literal,1,triplet_435,7191-4269f496-a149-46bc-bd18-1b0400bfe396,53eea17c88e31519492d9da2668ec34c,2080,deb0889d902f08bef51f77a6d7299806,304efa07923fc3c1c681404257d94ad9,38bdba5f6455c5ff91663a74ccd2338
18,18,literal,0,triplet_416,7191-4269f496-a149-46bc-bd18-1b0400bfe396,fcfb3a50acf5e83ecc0484ea4f50062,2014,deb0889d902f08bef51f77a6d7299806,304efa07923fc3c1c681404257d94ad9,38bdba5f6455c5ff91663a74ccd2338
19,19,literal,1,triplet_854,7191-4269f496-a149-46bc-bd18-1b0400bfe396,b117b01ab380362db8134b0fbf68257d,1870,deb0889d902f08bef51f77a6d7299806,304efa07923fc3c1c681404257d94ad9,38bdba5f6455c5ff91663a74ccd2338
20,20,pragmatic,1,triplet_497,7191-4269f496-a149-46bc-bd18-1b0400bfe396,5d60590d192c52553a23b8cb1a985a11,1983,deb0889d902f08bef51f77a6d7299806,304efa07923fc3c1c681404257d94ad9,38bdba5f6455c5ff91663a74ccd2338
21,21,pragmatic,0,triplet_653,7191-4269f496-a149-46bc-bd18-1b0400bfe396,bd6a8b133fa4d269491d6cee03fef2a9,2018,deb0889d902f08bef51f77a6d7299806,304efa07923fc3c1c681404257d94ad9,38bdba5f6455c5ff91663a74ccd2338
22,22,literal,0,triplet_152,7191-4269f496-a149-46bc-bd18-1b0400bfe396,c0c823f094d972c94b3c42e318f3affc,2080,deb0889d902f08bef51f77a6d7299806,304efa07923fc3c1c681404257d94ad9,38bdba5f6455c5ff91663a74ccd2338
23,23,literal,0,triplet_150,7191-4269f496-a149-46bc-bd18-1b0400bfe396,c927b1352027fd6916d8d4903814cf37,1850,deb0889d902f08bef51f77a6d7299806,304efa07923fc3c1c681404257d94ad9,38bdba5f6455c5ff91663a74ccd2338
24,24,pragmatic,0,triplet_1047,7191-4269f496-a149-46bc-bd18-1b0400bfe396,6697a325ee92e17695e321e9c6480,1922,deb0889d902f08bef51f77a6d7299806,304efa07923fc3c1c681404257d94ad9,38bdba5f6455c5ff91663a74ccd2338
25,25,pragmatic,1,triplet_1072,7191-4269f496-a149-46bc-bd18-1b0400bfe396,e39308cd84103a47f4b6538438a0b930,2230,deb0889d902f08bef51f77a6d7299806,304efa07923fc3c1c681404257d94ad9,38bdba5f6455c5ff91663a74ccd2338
26,26,pragmatic,1,triplet_845,7191-4269f496-a149-46bc-bd18-1b0400bfe396,aa0ad3538d0d7b3be6fe3612af521500,1883,deb0889d902f08bef51f77a6d7299806,304efa07923fc3c1c681404257d94ad9,38bdba5f6455c5ff91663a74ccd2338
27,27,literal,0,triplet_182,7191-4269f496-a149-46bc-bd18-1b0400bfe396,1fe0a612dfc3fc548be8b77157b819c9,2813,deb0889d902f08bef51f77a6d7299806,304efa07923fc3c1c681404257d94ad9,38bdba5f6455c5ff91663a74ccd2338
28,28,pragmatic,1,triplet_553,7191-4269f496-a149-46bc-bd18-1b0400bfe396,66e37e1831d3e49843638dabe1eb5336,1899,deb0889d902f08bef51f77a6d7299806,304efa07923fc3c1c681404257d94ad9,38bdba5f6455c5ff91663a74ccd2338
29,29,pragmatic,0,triplet_23,7191-4269f496-a149-46bc-bd18-1b0400bfe396,92c176547858fd2cf91663a74ccd2338,1774,deb0889d902f08bef51f77a6d7299806,304efa07923fc3c1c681404257d94ad9,38bdba5f6455c5ff91663a74ccd2338
30,30,literal,0,triplet_465,7191-4269f496-a149-46bc-bd18-1b0400bfe396,cdf733e544e6646f9b75b6346baf0c12,1753,deb0889d902f08bef51f77a6d7299806,304efa07923fc3c1c681404257d94ad9,38bdba5f6455c5ff91663a74ccd2338
31,31,literal,0,triplet_589,7191-4269f496-a149-46bc-bd18-1b0400bfe396,768acb4029f2d682bfad749b583f6a07,2012,deb0889d902f08bef51f77a6d7299806,304efa07923fc3c1c681404257d94ad9,38bdba5f6455c5ff91663a74ccd2338
32,32,pragmatic,1,triplet_792,7191-4269f496-a149-46bc-bd18-1b0400bfe396,a18a82b239fc07cf433619555ecca8aa,2015,deb0889d902f08bef51f77a6d7299806,304efa07923fc3c1c681404257d94ad9,38bdba5f6455c5ff91663a74ccd2338
33,33,literal,0,triplet_70,7191-4269f496-a149-46bc-bd18-1b0400bfe396,68dc135cd4671aeaff74317afae0a323,1868,deb0889d902f08bef51f77a6d7299806,304efa07923fc3c1c681404257d94ad9,38bdba5f6455c5ff91663a74ccd2338
34,34,literal,1,triplet_720,7191-4269f496-a149-46bc-bd18-1b0400bfe396,8c4ffe44076e9d4a15f62f0f1afbe530,1983,deb0889d902f08bef51f77a6d7299806,304efa07923fc3c1c681404257d94ad9,38bdba5f6455c5ff91663a74ccd2338
35,35,literal,0,triplet_758,7191-4269f496-a149-46bc-bd18-1b0400bfe396,e440059fcf6f36496ebf11292bdb9130,1748,deb0889d902f08bef51f77a6d7299806,304efa07923fc3c1c681404257d94ad9,38bdba5f6455c5ff91663a74ccd2338
36,36,literal,0,triplet_238,7191-4269f496-a149-46bc-bd18-1b0400bfe396,fa8f7c225d3b9f1def4a09e7eb872bd9,2372,deb0889d902f08bef51f77a6d7299806,304efa07923fc3c1c681404257d94ad9,38bdba5f6455c5ff91663a74ccd2338
37,37,literal,0,triplet_220,7191-4269f496-a149-46bc-bd18-1b0400bfe396,bd504539074e453721a08935eb37d792,3684,deb0889d902f08bef51f77a6d7299806,304efa07923fc3c1c681404257d94ad9,38bdba5f6455c5ff91663a74ccd2338
38,38,literal,0,triplet_958,7191-4269f496-a149-46bc-bd18-1b0400bfe396,cbbf0aacb76a1ed17b20cb946bceb58f,2071,deb0889d902f08bef51f77a6d7299806,304efa07923fc3c1c681404257d94ad9,38bdba5f6455c5ff91663a74ccd2338
39,39,literal,1,triplet_128,7191-4269f496-a149-46bc-bd18-1b0400bfe396,2972fd770304663cb3d180f4523082e1,2036,deb0889d902f08bef51f77a6d7299806,304efa07923fc3c1c681404257d94ad9,38bdba5f6455c5ff91663a74ccd2338
40,40,literal,0,triplet_785,7191-4269f496-a149-46bc-bd18-1b0400bfe396,cdc2a53559d3db78febad4f49b26ec52,1944,deb0889d902f08bef51f77a6d7299806,304efa07923fc3c1c681404257d94ad9,38bdba5f6455c5ff91663a74ccd2338
41,41,literal,1,triplet_790,7191-4269f496-a149-46bc-bd18-1b0400bfe396,a07b5b7014264e0330e06a011e63236a,3393,deb0889d902f08bef51f77a6d7299806,304efa07923fc3c1c681404257d94ad9,38bdba5f6455c5ff91663a74ccd2338
42,42,literal,0,triplet_1078,7191-4269f496-a149-46bc-bd18-1b0400bfe396,c76b2d2e9b7cc59e82eddefc99ebacfd,1965,deb0889d902f08bef51f77a6d7299806,304efa07923fc3c1c681404257d94ad9,38bdba5f6455c5ff91663a74ccd2338
43,43,pragmatic,1,triplet_599,7191-4269f496-a149-46bc-bd18-1b0400bfe396,71372a09d0dec4f2e3837ef7356e7613,1768,deb0889d902f08bef51f77a6d7299806,304efa07923fc3c1c681404257d94ad9,38bdba5f6455c5ff91663a74ccd2338
44,44,literal,0,triplet_330,7191-4269f496-a149-46bc-bd18-1b0400bfe396,30d3b99aabb3ce1c4adcf948bcaafbd8,2133,deb0889d902f08bef51f77a6d7299806,304efa07923fc3c1c681404257d94ad9,38bdba5f6455c5ff91663a74ccd2338
45,45,pragmatic,1,triplet_128,7191-4269f496-a149-46bc-bd18-1b0400bfe396,2972fd770304663cb3d180f4523082e1,1920,deb0889d902f08bef51f77a6d7299806,304efa07923fc3c1c681404257d94ad9,38bdba5f6455c5ff91663a74ccd2338
46,46,pragmatic,0,triplet_500,7191-4269f496-a149-46bc-bd18-1b0400bfe396,c0cdfbbf3a80105fa8699b6183baa203,2032,deb0889d902f08bef51f77a6d7299806,304efa07923fc3c1c681404257d94ad9,38bdba5f6455c5ff91663a74ccd2338
47,47,literal,0,triplet_905,7191-4269f496-a149-46bc-bd18-1b0400bfe396,6a73ce89c4a941ac0f947750540fb22,2054,deb0889d902f08bef51f77a6d7299806,304efa07923fc3c1c681404257d94ad9,38bdba5f6455c5ff91663a74ccd2338
48,48,literal,1,triplet_71,7191-4269f496-a149-46bc-bd18-1b0400bfe396,21e0ce3ed3e9452c93271d2223fe04be,2056,deb0889d902f08bef51f77a6d7299806,304efa07923fc3c1c681404257d94ad9,38bdba5f6455c5ff91663a74ccd2338
49,49,literal,1,triplet_788,7191-4269f496-a149-46bc-bd18-1b0400bfe396,9e6564dce4cc128efc24661f5f8d5d00,4185,deb0889d902f08bef51f77a6d7299806,304efa07923fc3c1c681404257d94ad9,38bdba5f6455c5ff91663a74ccd2338
50,50,pragmatic,1,triplet_15,7191-4269f496-a149-46bc-bd18-1b0400bfe396,116bcb3b43de74b9df9054bbcf5c6adc,2921,deb0889d902f08bef51f77a6d7299806,304efa07923fc3c1c681404257d94ad9,38bdba5f6455c5ff91663a74ccd2338
51,51,literal,0,triplet_829,7191-4269f496-a149-46bc-bd18-1b0400bfe396,4ed2bc57d5fcfbd82c37553db37ec752,2077,deb0889d902f08bef51f77a6d7299806,304efa07923fc3c1c681404257d94ad9,38bdba5f6455c5ff91663a74ccd2338
52,52,pragmatic,0,triplet_336,7191-4269f496-a149-46bc-bd18-1b0400bfe396,671f35148ef1cb2fc0806ee26b689c99,1891,deb0889d902f08bef51f77a6d7299806,304efa07923fc3c1c681404257d94ad9,38bdba5f6455c5ff91663a74ccd2338
53,53,literal,0,triplet_741,7191-4269f496-a149-46bc-bd18-1b0400bfe396,9f3ff62527bf46f237b2bb75885cfc44,1797,deb0889d902f08bef51f77a6d7299806,304efa07923fc3c1c681404257d94ad9,38bdba5f6455c5ff91663a74ccd2338
54,54,pragmatic,0,triplet_433,7191-4269f496-a149-46bc-bd18-1b0400bfe396,d72f27e4240bd7d0283b00891f680579,1890,deb0889d902f08bef51f77a6d7299806,304efa07923fc3c1c681404257d94ad9,38bdba5f6455c5ff91663a74ccd2338
55,55,literal,1,triplet_863,7191-4269f496-a149-46bc-bd18-1b0400bfe396,b625936e3db6af6318df1fa50d2b64c,2662,deb0889d902f08bef51f77a6d7299806,304efa07923fc3c1c681404257d94ad9,38bdba5f6455c5ff91663a74ccd2338
56,0,pragmatic,1,triplet_25,6939-2c28cdb6-bd9c-41a4-abd0-726a9426b9cd,122a480cfcdd742650c626aa72455dae,4570,deb0889d902f08bef51f77a6d7299806,304efa07923fc3c1c681404257d94ad9,38bdba5f6455c5ff91663a74ccd2338
57,1,pragmatic,1,triplet_280,6939-2c28cdb6-bd9c-41a4-abd0-726a9426b9cd,3dc79f23cd284bd8ece416489129c313,12086,deb0889d902f08bef51f77a6d7299806,304efa07923fc3c1c681404257d94ad9,38bdba5f6455c5ff91663a74ccd2338
58,2,pragmatic,1,triplet_132,6939-2c28cdb6-bd9c-41a4-abd0-726a9426b9cd,2a1d80a0aa67ee7585d33ad8f24c4885,4543,deb0889d902f08bef51f77a6d7299806,304efa07923fc3c1c681404257d94ad9,38bdba5f6455c5ff91663a74ccd2338
59,3,literal,0,triplet_426,6939-2c28cdb6-bd9c-41a4-abd0-726a9426b9cd,ee20e46c542e2268f51f77a6d7299806,5958,deb0889d902f08bef51f77a6d7299806,304efa07923fc3c1c681404257d94ad9,38bdba5f6455c5ff91663a74ccd2338
60,4,pragmatic,1,triplet_244,6939-2c28cdb6-bd9c-41a4-abd0-726a9426b9cd,384dc36226d1d4deb7f1aaa55af02518,4643,deb0889d902f08bef51f77a6d7299806,304efa07923fc3c1c681404257d94ad9,38bdba5f6455c5ff91663a74ccd2338
61,5,literal,1,triplet_858,6939-2c28cdb6-bd9c-41a4-abd0-726a9426b9cd,b2c838917b9f0fb68a40e1421d6a3cbf,5235,deb0889d902f08bef51f77a6d7299806,304efa07923fc3c1c681404257d94ad9,38bdba5f6455c5ff91663a74ccd2338
62,6,literal,1,triplet_61,6939-2c28cdb6-bd9c-41a4-abd0-726a9426b9cd,1e44e3c128b667b4fdef1c01cbd4ae0c,5285,deb0889d902f08bef51f77a6d7299806,304efa07923fc3c1c681404257d94ad9,38bdba5f6455c5ff91663a74ccd2338
63,7,pragmatic,1,triplet_22,6939-2c28cdb6-bd9c-41a4-abd0-726a9426b9cd,11fa9b044482814ef91663a74ccd2338,4558,deb0889d902f08bef51f77a6d7299806,304efa07923fc3c1c681404257d94ad9,38bdba5f6455c5ff91663a74ccd2338
64,8,pragmatic,1,triplet_863,6939-2c28cdb6-bd9c-41a4-abd0-726a9426b9cd,b625936e3db6af6318df1fa50d2b64c,13037,deb0889d902f08bef51f77a6d7299806,304efa07923fc3c1c681404257d94ad9,38bdba5f6455c5ff91663a74ccd2338
65,9,literal,1,triplet_1098,6939-2c28cdb6-bd9c-41a4-abd0-726a9426b9cd,e8f20141696f143cdb77753d44aa25f6,4133,deb0889d902f08bef51f77a6d7299806,304efa07923fc3c1c681404257d94ad9,38bdba5f6455c5ff91663a74ccd2338
66,10,literal,1,triplet_819,6939-2c28cdb6-bd9c-41a4-abd0-726a9426b9cd,a6009749fd05fed82d19175e7d19b7cb,4281,deb0889d902f08bef51f77a6d7299806,304efa07923fc3c1c681404257d94ad9,38bdba5f6455c5ff91663a74ccd2338
67,11,pragmatic,1,triplet_1046,6939-2c28cdb6-bd9c-41a4-abd0-726a9426b9cd,df487c3660e7030dc5ed74d70201d4c,7169,deb0889d902f08bef51f77a6d7299806,304efa07923fc3c1c681404257d94ad9,38bdba5f6455c5ff91663a74ccd2338
68,12,literal,1,triplet_1132,6939-2c28cdb6-bd9c-41a4-abd0-726a9426b9cd,f04698af574cb9847edf3a3d7d1bacae,4891,deb0889d902f08bef51f77a6d7299806,304efa07923fc3c1c681404257d94ad9,38bdba5f6455c5ff91663a74ccd2338
69,13,literal,1,triplet_108,6939-2c28cdb6-bd9c-41a4-abd0-726a9426b9cd,24c0fc01144790be305e886266e302e1,6602,deb0889d902f08bef51f77a6d7299806,304efa07923fc3c1c681404257d94ad9,38bdba5f6455c5ff91663a74ccd2338
70,14,literal,1,triplet_3,6939-2c28cdb6-bd9c-41a4-abd0-726a9426b9cd,1033ee86cc8bac4390962e4fb7072b86,16110,deb0889d902f08bef51f77a6d7299806,304efa07923fc3c1c681404257d94ad9,38bdba5f6455c5ff91663a74ccd2338
71,15,literal,1,triplet_1126,6939-2c28cdb6-bd9c-41a4-abd0-726a9426b9cd,efe76021aa616a41f51fa0238791f5dc,6767,deb0889d902f08bef51f77a6d7299806,304efa07923fc3c1c681404257d94ad9,38bdba5f6455c5ff91663a74ccd2338
72,16,pragmatic,0,triplet_833,6939-2c28cdb6-bd9c-41a4-abd0-726a9426b9cd,7644e30dc0d88481a3d974b4624d6717,24488,deb0889d902f08bef51f77a6d7299806,304efa07923fc3c1c681404257d94ad9,38bdba5f6455c5ff91663a74ccd2338
73,17,literal,1,triplet_1038,6939-2c28cdb6-bd9c-41a4-abd0-726a9426b9cd,db0925930500d67d7094f114e4783e96,4319,deb0889d902f08bef51f77a6d7299806,304efa07923fc3c1c681404257d94ad9,38bdba5f6455c5ff91663a74ccd2338
74,18,pragmatic,0,triplet_561,6939-2c28cdb6-bd9c-41a4-abd0-726a9426b9cd,5fe56a4a9d5508c3b2373df00b89e5d,10224,deb0889d902f08bef51f77a6d7299806,304efa07923fc3c1c681404257d94ad9,38bdba5f6455c5ff91663a74ccd2338
75,19,pragmatic,1,triplet_61,6939-2c28cdb6-bd9c-41a4-abd0-726a9426b9cd,1e44e3c128b667b4fdef1c01cbd4ae0c,3560,deb0889d902f08bef51f77a6d7299806,304efa07923fc3c1c681404257d94ad9,38bdba5f6455c5ff91663a74ccd2338
76,20,literal,1,triplet_290,6939-2c28cdb6-bd9c-41a4-abd0-726a9426b9cd,40567b0166658623b80ea7d1a9683df8,5767,deb0889d902f08bef51f77a6d7299806,304efa07923fc3c1c681404257d94ad9,38bdba5f6455c5ff91663a74ccd2338
77,21,literal,0,triplet_621,6939-2c28cdb6-bd9c-41a4-abd0-726a9426b9cd,c7da2d72f9927f1881dff5c2e57ad46e,3910,deb0889d902f08bef51f77a6d7299806,304efa07923fc3c1c681404257d94ad9,38bdba5f6455c5ff91663a74ccd2338
78,22,pragmatic,1,triplet_137,6939-2c28cdb6-bd9c-41a4-abd0-726a9426b9cd,2a2d705d0238396488422a4c20c0b1e6,4577,deb0889d902f08bef51f77a6d7299806,304efa07923fc3c1c681404257d94ad9,38bdba5f6455c5ff91663a74ccd2338
79,23,pragmatic,1,triplet_396,6939-2c28cdb6-bd9c-41a4-abd0-726a9426b9cd,4dc7fe6e98c4db21d79b19c7c4f0e293,4063,deb0889d902f08bef51f77a6d7299806,304efa07923fc3c1c681404257d94ad9,38bdba5f6455c5ff91663a74ccd2338
80,24,literal,1,triplet_557,6939-2c28cdb6-bd9c-41a4-abd0-726a9426b9cd,69709cb300ae3784ee72e5c46412e9a7,6587,deb0889d902f08bef51f77a6d7299806,304efa07923fc3c1c681404257d94ad9,38bdba5f6455c5ff91663a74ccd2338
81,25,pragmatic,1,triplet_268,6939-2c28cdb6-bd9c-41a4-abd0-726a9426b9cd,3b2c9428da926e939ae03736d955651b,5623,deb0889d902f08bef51f77a6d7299806,304efa07923fc3c1c681404257d94ad9,38bdba5f6455c5ff91663a74ccd2338
82,26,literal,1,triplet_876,6939-2c28cdb6-bd9c-41a4-abd0-726a9426b9cd,b7c8be9dbe5ff1d540332412c5d013fb,3643,deb0889d902f08bef51f77a6d7299806,304efa07923fc3c1c681404257d94ad9,38bdba5f6455c5ff91663a74ccd2338
83,27,pragmatic,1,triplet_160,6939-2c28cdb6-bd9c-41a4-abd0-726a9426b9cd,2c4e9d34472b4bccc16f7010a3b8fdee,8694,deb0889d902f08bef51f77a6d7299806,304efa07923fc3c1c681404257d94ad9,38bdba5f6455c5ff91663a74ccd2338
84,28,pragmatic,0,triplet_1150,6939-2c28cdb6-bd9c-41a4-abd0-726a9426b9cd,5e89f5cc834553622acd2bb6205825cb,6728,deb0889d902f08bef51f77a6d7299806,304efa07923fc3c1c681404257d94ad9,38bdba5f6455c5ff91663a74ccd2338
85,29,literal,1,triplet_644,6939-2c28cdb6-bd9c-41a4-abd0-726a9426b9cd,768acb4029f2d682bfad749b583f6a07,5022,deb0889d902f08bef51f77a6d7299806,304efa07923fc3c1c681404257d94ad9,38bdba5f6455c5ff91663a74ccd2338
86,30,pragmatic,1,triplet_1105,6939-2c28cdb6-bd9c-41a4-abd0-726a9426b9cd,ebaf425ea2c92f73a3bafec3b56382db,5376,deb0889d902f08bef51f77a6d7299806,304efa07923fc3c1c681404257d94ad9,38bdba5f6455c5ff91663a74ccd2338
87,31,literal,1,triplet_608,6939-2c28cdb6-bd9c-41a4-abd0-726a9426b9cd,71b53a5f441d45b742b7e4c0136bdb7e,3195,deb0889d902f08bef51f77a6d7299806,304efa07923fc3c1c681404257d94ad9,38bdba5f6455c5ff91663a74ccd2338
88,32,pragmatic,1,triplet_279,6939-2c28cdb6-bd9c-41a4-abd0-726a9426b9cd,3dc252fd90d82b18c9be65dfbd21428b,5651,deb0889d902f08bef51f77a6d7299806,304efa07923fc3c1c681404257d94ad9,38bdba5f6455c5ff91663a74ccd2338
89,33,literal,0,triplet_1004,6939-2c28cdb6-bd9c-41a4-abd0-726a9426b9cd,35053caa62eea36c116cc4e115d5fd2,5580,deb0889d902f08bef51f77a6d7299806,304efa07923fc3c1c681404257d94ad9,38bdba5f6455c5ff91663a74ccd2338
90,34,pragmatic,1,triplet_539,6939-2c28cdb6-bd9c-41a4-abd0-726a9426b9cd,64e77e9e5887ce95492d9da2668ec34c,13326,deb0889d902f08bef51f77a6d7299806,304efa07923fc3c1c681404257d94ad9,38bdba5f6455c5ff91663a74ccd2338
91,35,pragmatic,0,triplet_1153,6939-2c28cdb6-bd9c-41a4-abd0-726a9426b9cd,740cc6d4d1c6901eadb91c074e672e22,4520,deb0889d902f08bef51f77a6d7299806,304efa07923fc3c1c681404257d94ad9,38bdba5f6455c5ff91663a74ccd2338
92,36,literal,1,triplet_749,6939-2c28cdb6-bd9c-41a4-abd0-726a9426b9cd,91de3157ea61d943f27383fc5a5a711c,4900,deb0889d902f08bef51f77a6d7299806,304efa07923fc3c1c681404257d94ad9,38bdba5f6455c5ff91663a74ccd2338
93,37,pragmatic,1,triplet_780,6939-2c28cdb6-bd9c-41a4-abd0-726a9426b9cd,9d961de6d462a7619fb4103277a6b93,6206,deb0889d902f08bef51f77a6d7299806,304efa07923fc3c1c681404257d94ad9,38bdba5f6455c5ff91663a74ccd2338
94,38,pragmatic,1,triplet_1089,6939-2c28cdb6-bd9c-41a4-abd0-726a9426b9cd,e67c305a676930b123c95a77265c8dd,3700,deb0889d902f08bef51f77a6d7299806,304efa07923fc3c1c681404257d94ad9,38bdba5f6455c5ff91663a74ccd2338
95,39,pragmatic,1,triplet_438,6939-2c28cdb6-bd9c-41a4-abd0-726a9426b9cd,5516e76a34984182b6f6d1d58b7b1311,5156,deb0889d902f08bef51f77a6d7299806,304efa07923fc3c1c681404257d94ad9,38bdba5f6455c5ff91663a74ccd2338
96,40,literal,1,triplet_1121,6939-2c28cdb6-bd9c-41a4-abd0-726a9426b9cd,ef1824754ae554af83b6e0255ae357be,8024,deb0889d902f08bef51f77a6d7299806,304efa07923fc3c1c681404257d94ad9,38bdba5f6455c5ff91663a74ccd2338
97,41,pragmatic,0,triplet_256,6939-2c28cdb6-bd9c-41a4-abd0-726a9426b9cd,fd5492b732f41dc3f7628281ecb18112,6666,deb0889d902f08bef51f77a6d7299806,304efa07923fc3c1c681404257d94ad9,38bdba5f6455c5ff91663a74ccd2338
98,42,literal,1,triplet_157,6939-2c28cdb6-bd9c-41a4-abd0-726a9426b9cd,2c052f5541d4d5689b2d7f86be5d0083,6101,deb0889d902f08bef51f77a6d7299806,304efa07923fc3c1c681404257d94ad9,38bdba5f6455c5ff91663a74ccd2338
99,43,pragmatic,0,triplet_1182,6939-2c28cdb6-bd9c-41a4-abd0-726a9426b9cd,5402eecc67e489502fa77440dcb93214,7656,deb0889d902f08bef51f77a6d7299806,304efa07923fc3c1c681404257d94ad9,38bdba5f6455c5ff91663a74ccd2338
100,44,pragmatic,1,triplet_715,6939-2c28cdb6-bd9c-41a4-abd0-726a9426b9cd,8c0a0360a7353ec26dd3cca80cedd415,4599,deb0889d902f08bef51f77a6d7299806,304efa07923fc3c1c681404257d94ad9,38bdba5f6455c5ff91663a74ccd2338
101,45,pragmatic,1,triplet_367,6939-2c28cdb6-bd9c-41a4-abd0-726a9426b9cd,48dbd34c00d1a5ccc9daa743e958a401,3458,deb0889d902f08bef51f77a6d7299806,304efa07923fc3c1c681404257d94ad9,38bdba5f6455c5ff91663a74ccd2338
102,46,pragmatic,1,triplet_824,6939-2c28cdb6-bd9c-41a4-abd0-726a9426b9cd,a6f280a490010a1d593ebeeedbff73b,5634,deb0889d902f08bef51f77a6d7299806,304efa07923fc3c1c681404257d94ad9,38bdba5f6455c5ff91663a74ccd2338
103,47,pragmatic,0,triplet_204,6939-2c28cdb6-bd9c-41a4-abd0-726a9426b9cd,341fcdd8a40a2612456cbf78e1e89022,8220,deb0889d902f08bef51f77a6d7299806,304efa07923fc3c1c681404257d94ad9,38bdba5f6455c5ff91663a74ccd2338
104,48,pragmatic,1,triplet_742,6939-2c28cdb6-bd9c-41a4-abd0-726a9426b9cd,91819d15c2c044ebd47ffa500636d198,3878,deb0889d902f08bef51f77a6d7299806,304efa07923fc3c1c681404257d94ad9,38bdba5f6455c5ff91663a74ccd2338
105,49,pragmatic,0,triplet_491,6939-2c28cdb6-bd9c-41a4-abd0-726a9426b9cd,6714df9bb34178e4f51f77a6d7299806,6008,deb0889d902f08bef51f77a6d7299806,304efa07923fc3c1c681404257d94ad9,38bdba5f6455c5ff91663a74ccd2338
106,50,literal,1,triplet_643,6939-2c28cdb6-bd9c-41a4-abd0-726a9426b9cd,768acb4029f2d682bfad749b583f6a07,3341,deb0889d902f08bef51f77a6d7299806,304efa07923fc3c1c681404257d94ad9,38bdba5f6455c5ff91663a74ccd2338
107,51,literal,1,triplet_283,6939-2c28cdb6-bd9c-41a4-abd0-726a9426b9cd,3ec25d235438258d815b20ced9d3b22a,7445,deb0889d902f08bef51f77a6d7299806,304efa07923fc3c1c681404257d94ad9,38bdba5f6455c5ff91663a74ccd2338
108,52,literal,1,triplet_1026,6939-2c28cdb6-bd9c-41a4-abd0-726a9426b9cd,d75d1c46cff08f4767c8e42cd3ac65ef,4644,deb0889d902f08bef51f77a6d7299806,304efa07923fc3c1c681404257d94ad9,38bdba5f6455c5ff91663a74ccd2338
109,53,pragmatic,0,triplet_568,6939-2c28cdb6-bd9c-41a4-abd0-726a9426b9cd,eae58f128191381de9efec56e07965d4,5564,deb0889d902f08bef51f77a6d7299806,304efa07923fc3c1c681404257d94ad9,38bdba5f6455c5ff91663a74ccd2338
110,54,pragmatic,1,triplet_130,6939-2c28cdb6-bd9c-41a4-abd0-726a9426b9cd,2972fd770304663cb3d180f4523082e1,3436,deb0889d902f08bef51f77a6d7299806,304efa07923fc3c1c681404257d94ad9,38bdba5f6455c5ff91663a74ccd2338
111,55,pragmatic,1,triplet_259,6939-2c28cdb6-bd9c-41a4-abd0-726a9426b9cd,3aa81c6d6d7d7d66c08256cf85537e,4916,deb0889d902f08bef51f77a6d7299806,304efa07923fc3c1c681404257d94ad9,38bdba5f6455c5ff91663a74ccd2338
112,0,pragmatic,1,triplet_871,9971-eb4c6135-ed43-4fbc-a04f-2d1f5887101d,b7073426bf9332187c564a6b9ce2156f,8510,deb0889d902f08bef51f77a6d7299806,304efa07923fc3c1c681404257d94ad9,38bdba5f6455c5ff91663a74ccd2338
113,1,literal,1,triplet_871,9971-eb4c6135-ed43-4fbc-a04f-2d1f5887101d,b7073426bf9332187c564a6b9ce2156f,5413,deb0889d902f08bef51f77a6d7299806,304efa07923fc3c1c681404257d94ad9,38bdba5f6455c5ff91663a74ccd2338
114,2,pragmatic,1,triplet_8,9971-eb4c6135-ed43-4fbc-a04f-2d1f5887101d,10dc303144fe5d668d1b9a1d97e2846,3823,deb0889d902f08bef51f77a6d7299806,304efa07923fc3c1c681404257d94ad9,38bdba5f6455c5ff91663a74ccd2338
115,3,pragmatic,1,triplet_588,9971-eb4c6135-ed43-4fbc-a04f-2d1f5887101d,6f194ba6ba254aacf51f77a6d7299806,11676,deb0889d902f08bef51f77a6d7299806,304efa07923fc3c1c681404257d94ad9,38bdba5f6455c5ff91663a74ccd2338
116,4,pragmatic,1,triplet_571,9971-eb4c6135-ed43-4fbc-a04f-2d1f5887101d,6d5d42d1272467953b63c9ead28992f1,17274,deb0889d902f08bef51f77a6d7299806,304efa07923fc3c1c681404257d94ad9,38bdba5f6455c5ff91663a74ccd2338
117,5,literal,1,triplet_329,9971-eb4c6135-ed43-4fbc-a04f-2d1f5887101d,453a678dec4e9d40f36ea1eb6542fe7e,6740,deb0889d902f08bef51f77a6d7299806,304efa07923fc3c1c681404257d94ad9,38bdba5f6455c5ff91663a74ccd2338
118,6,literal,1,triplet_649,9971-eb4c6135-ed43-4fbc-a04f-2d1f5887101d,7905bbf9abc0c264f3443b22038d340,4372,deb0889d902f08bef51f77a6d7299806,304efa07923fc3c1c681404257d94ad9,38bdba5f6455c5ff91663a74ccd2338
119,7,pragmatic,1,triplet_301,9971-eb4c6135-ed43-4fbc-a04f-2d1f5887101d,4275718494dd309bc7d25fde6b97816,4857,deb0889d902f08bef51f77a6d7299806,304efa07923fc3c1c681404257d94ad9,38bdba5f6455c5ff91663a74ccd2338
120,8,pragmatic,1,triplet_458,9971-eb4c6135-ed43-4fbc-a04f-2d1f5887101d,57cc406d478167a6a6c03a53cf0a14c9,5712,deb0889d902f08bef51f77a6d7299806,304efa07923fc3c1c681404257d94ad9,38bdba5f6455c5ff91663a74ccd2338
121,9,literal,0,triplet_996,9971-eb4c6135-ed43-4fbc-a04f-2d1f5887101d,2b69e899da0c15cfb40f0ac0fb9a650d,19605,deb0889d902f08bef51f77a6d7299806,304efa07923fc3c1c681404257d94ad9,38bdba5f6455c5ff91663a74ccd2338
122,10,literal,1,triplet_892,9971-eb4c6135-ed43-4fbc-a04f-2d1f5887101d,b998016472e9dd7a9b9f2eb77f5e247e,20859,deb0889d902f08bef51f77a6d7299806,304efa07923fc3c1c681404257d94ad9,38bdba5f6455c5ff91663a74ccd2338
123,11,pragmatic,0,triplet_347,9971-eb4c6135-ed43-4fbc-a04f-2d1f5887101d,3fa2fccd96f3e5b5347185e772ead5bd,15775,deb0889d902f08bef51f77a6d7299806,304efa07923fc3c1c681404257d94ad9,38bdba5f6455c5ff91663a74ccd2338
124,12,literal,0,triplet_178,9971-eb4c6135-ed43-4fbc-a04f-2d1f5887101d,aaba865e99c23e7082db9fca4b68095,9445,deb0889d902f08bef51f77a6d7299806,304efa07923fc3c1c681404257d94ad9,38bdba5f6455c5ff91663a74ccd2338
125,13,pragmatic,1,triplet_699,9971-eb4c6135-ed43-4fbc-a04f-2d1f5887101d,86199aed92fa1f68fd60059ad8523f1a,5576,deb0889d902f08bef51f77a6d7299806,304efa07923fc3c1c681404257d94ad9,38bdba5f6455c5ff91663a74ccd2338
126,14,pragmatic,1,triplet_877,9971-eb4c6135-ed43-4fbc-a04f-2d1f5887101d,b8e4d2f12e740739b6c7647742d948e,4783,deb0889d902f08bef51f77a6d7299806,304efa07923fc3c1c681404257d94ad9,38bdba5f6455c5ff91663a74ccd2338
127,15,pragmatic,1,triplet_422,9971-eb4c6135-ed43-4fbc-a04f-2d1f5887101d,51f4ea68be319fe8990e5087098e19c,6862,deb0889d902f08bef51f77a6d7299806,304efa07923fc3c1c681404257d94ad9,38bdba5f6455c5ff91663a74ccd2338
128,16,pragmatic,1,triplet_494,9971-eb4c6135-ed43-4fbc-a04f-2d1f5887101d,5d60590d192c52553a23b8cb1a985a11,8204,deb0889d902f08bef51f77a6d7299806,304efa07923fc3c1c681404257d94ad9,38bdba5f6455c5ff91663a74ccd2338
129,17,pragmatic,1,triplet_202,9971-eb4c6135-ed43-4fbc-a04f-2d1f5887101d,33f5c19e34d74fa97f07eeccaaddf1d0,7162,deb0889d902f08bef51f77a6d7299806,304efa07923fc3c1c681404257d94ad9,38bdba5f6455c5ff91663a74ccd2338
130,18,pragmatic,0,triplet_1113,9971-eb4c6135-ed43-4fbc-a04f-2d1f5887101d,a216d6a04494ef6a32485dc6e0b2347,11518,deb0889d902f08bef51f77a6d7299806,304efa07923fc3c1c681404257d94ad9,38bdba5f6455c5ff91663a74ccd2338
131,19,pragmatic,1,triplet_192,9971-eb4c6135-ed43-4fbc-a04f-2d1f5887101d,3297a632aee6ac55dbbc9440457e303e,18192,deb0889d902f08bef51f77a6d7299806,304efa07923fc3c1c681404257d94ad9,38bdba5f6455c5ff91663a74ccd2338
132,20,literal,0,triplet_1,9971-eb4c6135-ed43-4fbc-a04f-2d1f5887101d,8bba3f2eac551ada2c0e1e24bb9eb3ab,5352,deb0889d902f08bef51f77a6d7299806,304efa07923fc3c1c681404257d94ad9,38bdba5f6455c5ff91663a74ccd2338
133,21,literal,1,triplet_384,9971-eb4c6135-ed43-4fbc-a04f-2d1f5887101d,4a0e7f1129a9172349bb1cbbf9a4206,11081,deb0889d902f08bef51f77a6d7299806,304efa07923fc3c1c681404257d94ad9,38bdba5f6455c5ff91663a74ccd2338
134,22,pragmatic,1,triplet_78,9971-eb4c6135-ed43-4fbc-a04f-2d1f5887101d,21e0ce3ed3e9452c93271d2223fe04be,5104,deb0889d902f08bef51f77a6d7299806,304efa07923fc3c1c681404257d94ad9,38bdba5f6455c5ff91663a74ccd2338
135,23,literal,0,triplet_77,9971-eb4c6135-ed43-4fbc-a04f-2d1f5887101d,fffda9f09223a21118ff2740a556cc3,3643,deb0889d902f08bef51f77a6d7299806,304efa07923fc3c1c681404257d94ad9,38bdba5f6455c5ff91663a74ccd2338
136,24,pragmatic,1,triplet_1001,9971-eb4c6135-ed43-4fbc-a04f-2d1f5887101d,d32f32d76d7f53bf6996454765a52e50,6145,deb0889d902f08bef51f77a6d7299806,304efa07923fc3c1c681404257d94ad9,38bdba5f6455c5ff91663a74ccd2338
137,25,literal,1,triplet_247,9971-eb4c6135-ed43-4fbc-a04f-2d1f5887101d,38f87e02e850d3bd1d5ccc40b510e4bd,4845,deb0889d902f08bef51f77a6d7299806,304efa07923fc3c1c681404257d94ad9,38bdba5f6455c5ff91663a74ccd2338
138,26,pragmatic,1,triplet_627,9971-eb4c6135-ed43-4fbc-a04f-2d1f5887101d,74625aaed8902197f51f77a6d7299806,7097,deb0889d902f08bef51f77a6d7299806,304efa07923fc3c1c681404257d94ad9,38bdba5f6455c5ff91663a74ccd2338
139,27,literal,1,triplet_717,9971-eb4c6135-ed43-4fbc-a04f-2d1f5887101d,8c0a0360a7353ec26dd3cca80cedd415,4597,deb0889d902f08bef51f77a6d7299806,304efa07923fc3c1c681404257d94ad9,38bdba5f6455c5ff91663a74ccd2338
140,28,literal,1,triplet_826,9971-eb4c6135-ed43-4fbc-a04f-2d1f5887101d,a77b1abaa28588bb926350348c58b8b2,5961,deb0889d902f08bef51f77a6d7299806,304efa07923fc3c1c681404257d94ad9,38bdba5f6455c5ff91663a74ccd2338
141,29,literal,1,triplet_612,9971-eb4c6135-ed43-4fbc-a04f-2d1f5887101d,7250e86b4feb699aa08cd647a48e605d,4186,deb0889d902f08bef51f77a6d7299806,304efa07923fc3c1c681404257d94ad9,38bdba5f6455c5ff91663a74ccd2338
142,30,literal,0,triplet_763,9971-eb4c6135-ed43-4fbc-a04f-2d1f5887101d,b94002e3a92ca65efdcf3d27ddf91f4c,19634,deb0889d902f08bef51f77a6d7299806,304efa07923fc3c1c681404257d94ad9,38bdba5f6455c5ff91663a74ccd2338
143,31,pragmatic,0,triplet_443,9971-eb4c6135-ed43-4fbc-a04f-2d1f5887101d,c8d6e4e789a0c6a7eaeab1f0c9120b7,8030,deb0889d902f08bef51f77a6d7299806,304efa07923fc3c1c681404257d94ad9,38bdba5f6455c5ff91663a74ccd2338
144,32,literal,1,triplet_693,9971-eb4c6135-ed43-4fbc-a04f-2d1f5887101d,828d2c47bf56b15c49560f24b21df85,6379,deb0889d902f08bef51f77a6d7299806,304efa07923fc3c1c681404257d94ad9,38bdba5f6455c5ff91663a74ccd2338
145,33,literal,1,triplet_442,9971-eb4c6135-ed43-4fbc-a04f-2d1f5887101d,55192bc667582ebb83d21872be197422,4139,deb0889d902f08bef51f77a6d7299806,304efa07923fc3c1c681404257d94ad9,38bdba5f6455c5ff91663a74ccd2338
146,34,pragmatic,1,triplet_988,9971-eb4c6135-ed43-4fbc-a04f-2d1f5887101d,cc5dea482768651ed0e93cdb469eb63,5138,deb0889d902f08bef51f77a6d7299806,304efa07923fc3c1c681404257d94ad9,38bdba5f6455c5ff91663a74ccd2338
147,35,pragmatic,1,triplet_2,9971-eb4c6135-ed43-4fbc-a04f-2d1f5887101d,100b18376b885f206ae9ad7e32c4139d,3854,deb0889d902f08bef51f77a6d7299806,304efa07923fc3c1c681404257d94ad9,38bdba5f6455c5ff91663a74ccd2338
148,36,literal,1,triplet_2,9971-eb4c6135-ed43-4fbc-a04f-2d1f5887101d,100b18376b885f206ae9ad7e32c4139d,4373,deb0889d902f08bef51f77a6d7299806,304efa07923fc3c1c681404257d94ad9,38bdba5f6455c5ff91663a74ccd2338
149,37,literal,0,triplet_496,9971-eb4c6135-ed43-4fbc-a04f-2d1f5887101d,3211fc4f31b15964aee892adc836ce83,12864,deb0889d902f08bef51f77a6d7299806,304efa07923fc3c1c681404257d94ad9,38bdba5f6455c5ff91663a74ccd2338
150,38,pragmatic,1,triplet_427,9971-eb4c6135-ed43-4fbc-a04f-2d1f5887101d,537924063294eb5f46ed025f8f85e067,4994,deb0889d902f08bef51f77a6d7299806,304efa07923fc3c1c681404257d94ad9,38bdba5f6455c5ff91663a74ccd2338
151,39,pragmatic,1,triplet_1172,9971-eb4c6135-ed43-4fbc-a04f-2d1f5887101d,fbc87a27b5691196bd3b190b59dd9fb7,6942,deb0889d902f08bef51f77a6d7299806,304efa07923fc3c1c681404257d94ad9,38bdba5f6455c5ff91663a74ccd2338
152,40,literal,0,triplet_779,9971-eb4c6135-ed43-4fbc-a04f-2d1f5887101d,75acccc933a08ebd2afe8d5254a0d04,6841,deb0889d902f08bef51f77a6d7299806,304efa07923fc3c1c681404257d94ad9,38bdba5f6455c5ff91663a74ccd2338
153,41,pragmatic,1,triplet_886,9971-eb4c6135-ed43-4fbc-a04f-2d1f5887101d,b944154f00e7cf1fad484915511ccff6,17760,deb0889d902f08bef51f77a6d7299806,304efa07923fc3c1c681404257d94ad9,38bdba5f6455c5ff91663a74ccd2338
154,42,literal,1,triplet_1046,9971-eb4c6135-ed43-4fbc-a04f-2d1f5887101d,df487c3660e7030dc5ed74d70201d4c,7036,deb0889d902f08bef51f77a6d7299806,304efa07923fc3c1c681404257d94ad9,38bdba5f6455c5ff91663a74ccd2338
155,43,pragmatic,1,triplet_19,9971-eb4c6135-ed43-4fbc-a04f-2d1f5887101d,11dba3a8d7b7210f5ff61a3a2a0e2484,4820,deb0889d902f08bef51f77a6d7299806,304efa07923fc3c1c681404257d94ad9,38bdba5f6455c5ff91663a74ccd2338
156,44,literal,0,triplet_76,9971-eb4c6135-ed43-4fbc-a04f-2d1f5887101d,1d6faeb6d77d1f2cf95cd8df6bebbc3a,5639,deb0889d902f08bef51f77a6d7299806,304efa07923fc3c1c681404257d94ad9,38bdba5f6455c5ff91663a74ccd2338
157,45,literal,0,triplet_409,9971-eb4c6135-ed43-4fbc-a04f-2d1f5887101d,acf23f78322f00f219fb4103277a6b93,8859,deb0889d902f08bef51f77a6d7299806,304efa07923fc3c1c681404257d94ad9,38bdba5f6455c5ff91663a74ccd2338
158,46,pragmatic,0,triplet_385,9971-eb4c6135-ed43-4fbc-a04f-2d1f5887101d,5c9d582488732ee0d7f7a4c4609b0913,13114,deb0889d902f08bef51f77a6d7299806,304efa07923fc3c1c681404257d94ad9,38bdba5f6455c5ff91663a74ccd2338
159,47,literal,1,triplet_916,9971-eb4c6135-ed43-4fbc-a04f-2d1f5887101d,bfe3afaa774eab6e29e17f7efc5a2421,11041,deb0889d902f08bef51f77a6d7299806,304efa07923fc3c1c681404257d94ad9,38bdba5f6455c5ff91663a74ccd2338
160,48,pragmatic,0,triplet_949,9971-eb4c6135-ed43-4fbc-a04f-2d1f5887101d,9b6f17ce2db29c4c9ae35d137ece64f9,22570,deb0889d902f08bef51f77a6d7299806,304efa07923fc3c1c681404257d94ad9,38bdba5f6455c5ff91663a74ccd2338
161,49,literal,1,triplet_525,9971-eb4c6135-ed43-4fbc-a04f-2d1f5887101d,61fb89fca404e37f598bcf8ac674b63d,4363,deb0889d902f08bef51f77a6d7299806,304efa07923fc3c1c681404257d94ad9,38bdba5f6455c5ff91663a74ccd2338
162,50,literal,1,triplet_201,9971-eb4c6135-ed43-4fbc-a04f-2d1f5887101d,33f5c19e34d74fa97f07eeccaaddf1d0,4297,deb0889d902f08bef51f77a6d7299806,304efa07923fc3c1c681404257d94ad9,38bdba5f6455c5ff91663a74ccd2338
163,51,pragmatic,1,triplet_908,9971-eb4c6135-ed43-4fbc-a04f-2d1f5887101d,bcdcb4928e07e4174a623eb2e3317415,7187,deb0889d902f08bef51f77a6d7299806,304efa07923fc3c1c681404257d94ad9,38bdba5f6455c5ff91663a74ccd2338
164,52,pragmatic,1,triplet_959,9971-eb4c6135-ed43-4fbc-a04f-2d1f5887101d,c88eb06478809180f7628281ecb18112,4818,deb0889d902f08bef51f77a6d7299806,304efa07923fc3c1c681404257d94ad9,38bdba5f6455c5ff91663a74ccd2338
165,53,pragmatic,1,triplet_211,9971-eb4c6135-ed43-4fbc-a04f-2d1f5887101d,3469b7f0709ed90ac681404257d94ad9,3990,deb0889d902f08bef51f77a6d7299806,304efa07923fc3c1c681404257d94ad9,38bdba5f6455c5ff91663a74ccd2338
166,54,pragmatic,1,triplet_1052,9971-eb4c6135-ed43-4fbc-a04f-2d1f5887101d,e0311d577cff9d85f6ea7461c0aa61c3,4572,deb0889d902f08bef51f77a6d7299806,304efa07923fc3c1c681404257d94ad9,38bdba5f6455c5ff91663a74ccd2338
167,55,pragmatic,0,triplet_531,9971-eb4c6135-ed43-4fbc-a04f-2d1f5887101d,71372c1f20b6a04c43c40c5aa3d5c5b7,4822,deb0889d902f08bef51f77a6d7299806,304efa07923fc3c1c681404257d94ad9,38bdba5f6455c5ff91663a74ccd2338
168,0,pragmatic,1,triplet_997,9167-0e06ca27-06a2-4ece-91b9-e3c27e936ae7,d32f32d76d7f53bf6996454765a52e50,4976,deb0889d902f08bef51f77a6d7299806,304efa07923fc3c1c681404257d94ad9,38bdba5f6455c5ff91663a74ccd2338
169,1,pragmatic,1,triplet_731,9167-0e06ca27-06a2-4ece-91b9-e3c27e936ae7,8f1e882bdc10f54955f46d55537192b6,4567,deb0889d902f08bef51f77a6d7299806,304efa07923fc3c1c681404257d94ad9,38bdba5f6455c5ff91663a74ccd2338
170,2,literal,0,triplet_1074,9167-0e06ca27-06a2-4ece-91b9-e3c27e936ae7,6333b3de61610070cb443b1c1b54049e,7884,deb0889d902f08bef51f77a6d7299806,304efa07923fc3c1c681404257d94ad9,38bdba5f6455c5ff91663a74ccd2338
171,3,literal,1,triplet_1029,9167-0e06ca27-06a2-4ece-91b9-e3c27e936ae7,d7f35cad0f4ab17788dcbe86402c7c15,5066,deb0889d902f08bef51f77a6d7299806,304efa07923fc3c1c681404257d94ad9,38bdba5f6455c5ff91663a74ccd2338
172,4,pragmatic,1,triplet_509,9167-0e06ca27-06a2-4ece-91b9-e3c27e936ae7,5e89f5cc834553622acd2bb6205825cb,5348,deb0889d902f08bef51f77a6d7299806,304efa07923fc3c1c681404257d94ad9,38bdba5f6455c5ff91663a74ccd2338
173,5,pragmatic,1,triplet_784,9167-0e06ca27-06a2-4ece-91b9-e3c27e936ae7,9db73a6184c82d33f28699debac30ad6,15827,deb0889d902f08bef51f77a6d7299806,304efa07923fc3c1c681404257d94ad9,38bdba5f6455c5ff91663a74ccd2338
174,6,pragmatic,1,triplet_710,9167-0e06ca27-06a2-4ece-91b9-e3c27e936ae7,8979c1aaa6675009bf80985a99195eb8,3581,deb0889d902f08bef51f77a6d7299806,304efa07923fc3c1c681404257d94ad9,38bdba5f6455c5ff91663a74ccd2338
175,7,literal,1,triplet_431,9167-0e06ca27-06a2-4ece-91b9-e3c27e936ae7,53eea17c88e31519492d9da2668ec34c,33356,deb0889d902f08bef51f77a6d7299806,304efa07923fc3c1c681404257d94ad9,38bdba5f6455c5ff91663a74ccd2338
176,8,pragmatic,0,triplet_995,9167-0e06ca27-06a2-4ece-91b9-e3c27e936ae7,b6985891e45b998e7181375a1be1d1c9,17556,deb0889d902f08bef51f77a6d7299806,304efa07923fc3c1c681404257d94ad9,38bdba5f6455c5ff91663a74ccd2338
177,9,literal,1,triplet_1009,9167-0e06ca27-06a2-4ece-91b9-e3c27e936ae7,d521a48317d0b14d7ac55d461d1984,4801,deb0889d902f08bef51f77a6d7299806,304efa07923fc3c1c681404257d94ad9,38bdba5f6455c5ff91663a74ccd2338
178,10,literal,1,triplet_1061,9167-0e06ca27-06a2-4ece-91b9-e3c27e936ae7,e1e7e66978b888703f146f1fbd99cb1a,5162,deb0889d902f08bef51f77a6d7299806,304efa07923fc3c1c681404257d94ad9,38bdba5f6455c5ff91663a74ccd2338
179,11,pragmatic,1,triplet_567,9167-0e06ca27-06a2-4ece-91b9-e3c27e936ae7,6d5d42d1272467953b63c9ead28992f1,5592,deb0889d902f08bef51f77a6d7299806,304efa07923fc3c1c681404257d94ad9,38bdba5f6455c5ff91663a74ccd2338
180,12,pragmatic,1,triplet_1082,9167-0e06ca27-06a2-4ece-91b9-e3c27e936ae7,e57aa2d477a818ed2af6ec758865822,5264,deb0889d902f08bef51f77a6d7299806,304efa07923fc3c1c681404257d94ad9,38bdba5f6455c5ff91663a74ccd2338
181,13,pragmatic,1,triplet_466,9167-0e06ca27-06a2-4ece-91b9-e3c27e936ae7,59f4a5d8390c3c3d5fce6078044eb87,4932,deb0889d902f08bef51f77a6d7299806,304efa07923fc3c1c681404257d94ad9,38bdba5f6455c5ff91663a74ccd2338
182,14,literal,1,triplet_179,9167-0e06ca27-06a2-4ece-91b9-e3c27e936ae7,30074024ad3c581a19fb4103277a6b93,5066,deb0889d902f08bef51f77a6d7299806,304efa07923fc3c1c681404257d94ad9,38bdba5f6455c5ff91663a74ccd2338
183,15,pragmatic,1,triplet_261,9167-0e06ca27-06a2-4ece-91b9-e3c27e936ae7,3ae4d69fc1f9b15d2f008cb82e08f24e,3777,deb0889d902f08bef51f77a6d7299806,304efa07923fc3c1c681404257d94ad9,38bdba5f6455c5ff91663a74ccd2338
184,16,literal,1,triplet_1083,9167-0e06ca27-06a2-4ece-91b9-e3c27e936ae7,e5b8d52826245f3937b2bb75885cfc44,3533,deb0889d902f08bef51f77a6d7299806,304efa07923fc3c1c681404257d94ad9,38bdba5f6455c5ff91663a74ccd2338
185,17,literal,1,triplet_845,9167-0e06ca27-06a2-4ece-91b9-e3c27e936ae7,aa0ad3538d0d7b3be6fe3612af521500,3848,deb0889d902f08bef51f77a6d7299806,304efa07923fc3c1c681404257d94ad9,38bdba5f6455c5ff91663a74ccd2338
186,18,pragmatic,1,triplet_68,9167-0e06ca27-06a2-4ece-91b9-e3c27e936ae7,1e7bc7fd20c61944f51f77a6d7299806,3894,deb0889d902f08bef51f77a6d7299806,304efa07923fc3c1c681404257d94ad9,38bdba5f6455c5ff91663a74ccd2338
187,19,literal,1,triplet_673,9167-0e06ca27-06a2-4ece-91b9-e3c27e936ae7,7e6b4a7b4dd60c40cc8bd7a04c9659f1,4323,deb0889d902f08bef51f77a6d7299806,304efa07923fc3c1c681404257d94ad9,38bdba5f6455c5ff91663a74ccd2338
188,20,pragmatic,1,triplet_340,9167-0e06ca27-06a2-4ece-91b9-e3c27e936ae7,46c7367eede2d9c5ca2ed12df13a916a,6452,deb0889d902f08bef51f77a6d7299806,304efa07923fc3c1c681404257d94ad9,38bdba5f6455c5ff91663a74ccd2338
189,21,literal,0,triplet_859,9167-0e06ca27-06a2-4ece-91b9-e3c27e936ae7,b2a658572331c578340a1d09e918e861,6495,deb0889d902f08bef51f77a6d7299806,304efa07923fc3c1c681404257d94ad9,38bdba5f6455c5ff91663a74ccd2338
190,22,literal,1,triplet_925,9167-0e06ca27-06a2-4ece-91b9-e3c27e936ae7,c12dc91e3564d8e3473f10e6caaeca56,4864,deb0889d902f08bef51f77a6d7299806,304efa07923fc3c1c681404257d94ad9,38bdba5f6455c5ff91663a74ccd2338
191,23,literal,0,triplet_346,9167-0e06ca27-06a2-4ece-91b9-e3c27e936ae7,f609378d4f5c755c9df2fbafa78e52d9,3631,deb0889d902f08bef51f77a6d7299806,304efa07923fc3c1c681404257d94ad9,38bdba5f6455c5ff91663a74ccd2338
192,24,literal,1,triplet_159,9167-0e06ca27-06a2-4ece-91b9-e3c27e936ae7,2c4e9d34472b4bccc16f7010a3b8fdee,4590,deb0889d902f08bef51f77a6d7299806,304efa07923fc3c1c681404257d94ad9,38bdba5f6455c5ff91663a74ccd2338
193,25,pragmatic,1,triplet_464,9167-0e06ca27-06a2-4ece-91b9-e3c27e936ae7,59155eb9123a9aa330bbd4cddd04c77b,4748,deb0889d902f08bef51f77a6d7299806,304efa07923fc3c1c681404257d94ad9,38bdba5f6455c5ff91663a74ccd2338
194,26,literal,1,triplet_430,9167-0e06ca27-06a2-4ece-91b9-e3c27e936ae7,53eea17c88e31519492d9da2668ec34c,4558,deb0889d902f08bef51f77a6d7299806,304efa07923fc3c1c681404257d94ad9,38bdba5f6455c5ff91663a74ccd2338
195,27,literal,0,triplet_240,9167-0e06ca27-06a2-4ece-91b9-e3c27e936ae7,7862b32132af278f45ce8baa9aaad5d5,4372,deb0889d902f08bef51f77a6d7299806,304efa07923fc3c1c681404257d94ad9,38bdba5f6455c5ff91663a74ccd2338
196,28,literal,1,triplet_849,9167-0e06ca27-06a2-4ece-91b9-e3c27e936ae7,ac47b4d30b598978d5a4a04ac21f0578,3884,deb0889d902f08bef51f77a6d7299806,304efa07923fc3c1c681404257d94ad9,38bdba5f6455c5ff91663a74ccd2338
197,29,pragmatic,1,triplet_1006,9167-0e06ca27-06a2-4ece-91b9-e3c27e936ae7,d334e5ab55188d62680876614ed35a7f,3322,deb0889d902f08bef51f77a6d7299806,304efa07923fc3c1c681404257d94ad9,38bdba5f6455c5ff91663a74ccd2338
198,30,literal,1,triplet_1067,9167-0e06ca27-06a2-4ece-91b9-e3c27e936ae7,e3394ec3b63fdc255d59dae8d8b300a8,3847,deb0889d902f08bef51f77a6d7299806,304efa07923fc3c1c681404257d94ad9,38bdba5f6455c5ff91663a74ccd2338
199,31,pragmatic,1,triplet_1017,9167-0e06ca27-06a2-4ece-91b9-e3c27e936ae7,d609864ada7d0170278d386bfa54545,5945,deb0889d902f08bef51f77a6d7299806,304efa07923fc3c1c681404257d94ad9,38bdba5f6455c5ff91663a74ccd2338
200,32,literal,1,triplet_418,9167-0e06ca27-06a2-4ece-91b9-e3c27e936ae7,51375e5aaac17a8ef7628281ecb18112,4209,deb0889d902f08bef51f77a6d7299806,304efa07923fc3c1c681404257d94ad9,38bdba5f6455c5ff91663a74ccd2338
201,33,pragmatic,1,triplet_1120,9167-0e06ca27-06a2-4ece-91b9-e3c27e936ae7,ef1824754ae554af83b6e0255ae357be,5282,deb0889d902f08bef51f77a6d7299806,304efa07923fc3c1c681404257d94ad9,38bdba5f6455c5ff91663a74ccd2338
202,34,literal,1,triplet_645,9167-0e06ca27-06a2-4ece-91b9-e3c27e936ae7,768acb4029f2d682bfad749b583f6a07,4279,deb0889d902f08bef51f77a6d7299806,304efa07923fc3c1c681404257d94ad9,38bdba5f6455c5ff91663a74ccd2338
203,35,literal,1,triplet_1102,9167-0e06ca27-06a2-4ece-91b9-e3c27e936ae7,e922bbf8088552badd7092ed47061a36,4554,deb0889d902f08bef51f77a6d7299806,304efa07923fc3c1c681404257d94ad9,38bdba5f6455c5ff91663a74ccd2338
204,36,literal,1,triplet_962,9167-0e06ca27-06a2-4ece-91b9-e3c27e936ae7,c88eb06478809180f7628281ecb18112,5582,deb0889d902f08bef51f77a6d7299806,304efa07923fc3c1c681404257d94ad9,38bdba5f6455c5ff91663a74ccd2338
205,37,pragmatic,1,triplet_170,9167-0e06ca27-06a2-4ece-91b9-e3c27e936ae7,2f1a67cdabe2a70c492d9da2668ec34c,3884,deb0889d902f08bef51f77a6d7299806,304efa07923fc3c1c681404257d94ad9,38bdba5f6455c5ff91663a74ccd2338
206,38,literal,1,triplet_364,9167-0e06ca27-06a2-4ece-91b9-e3c27e936ae7,48b257f80c7434cb56f6fc4b4ce1db04,4203,deb0889d902f08bef51f77a6d7299806,304efa07923fc3c1c681404257d94ad9,38bdba5f6455c5ff91663a74ccd2338
207,39,pragmatic,1,triplet_1053,9167-0e06ca27-06a2-4ece-91b9-e3c27e936ae7,e039a013f1877fbf42bd71dd667c95ad,3882,deb0889d902f08bef51f77a6d7299806,304efa07923fc3c1c681404257d94ad9,38bdba5f6455c5ff91663a74ccd2338
208,40,pragmatic,1,triplet_435,9167-0e06ca27-06a2-4ece-91b9-e3c27e936ae7,53eea17c88e31519492d9da2668ec34c,3506,deb0889d902f08bef51f77a6d7299806,304efa07923fc3c1c681404257d94ad9,38bdba5f6455c5ff91663a74ccd2338
209,41,pragmatic,0,triplet_1107,9167-0e06ca27-06a2-4ece-91b9-e3c27e936ae7,8707cf0c311ba8f34b3c42e318f3affc,2982,deb0889d902f08bef51f77a6d7299806,304efa07923fc3c1c681404257d94ad9,38bdba5f6455c5ff91663a74ccd2338
210,42,literal,1,triplet_1095,9167-0e06ca27-06a2-4ece-91b9-e3c27e936ae7,e8f20141696f143cdb77753d44aa25f6,4069,deb0889d902f08bef51f77a6d7299806,304efa07923fc3c1c681404257d94ad9,38bdba5f6455c5ff91663a74ccd2338
211,43,literal,1,triplet_1113,9167-0e06ca27-06a2-4ece-91b9-e3c27e936ae7,ec758c4557250ca79f2349486c570dd4,5446,deb0889d902f08bef51f77a6d7299806,304efa07923fc3c1c681404257d94ad9,38bdba5f6455c5ff91663a74ccd2338
212,44,pragmatic,1,triplet_57,9167-0e06ca27-06a2-4ece-91b9-e3c27e936ae7,1c3f1a9cea91359c4c3e19c2c67c262f,5151,deb0889d902f08bef51f77a6d7299806,304efa07923fc3c1c681404257d94ad9,38bdba5f6455c5ff91663a74ccd2338
213,45,pragmatic,1,triplet_828,9167-0e06ca27-06a2-4ece-91b9-e3c27e936ae7,a800bd725fe116447a84e76181a9e08f,4439,deb0889d902f08bef51f77a6d7299806,304efa07923fc3c1c681404257d94ad9,38bdba5f6455c5ff91663a74ccd2338
214,46,literal,1,triplet_894,9167-0e06ca27-06a2-4ece-91b9-e3c27e936ae7,bb7755090f984ba85dd1bba5b1310523,4722,deb0889d902f08bef51f77a6d7299806,304efa07923fc3c1c681404257d94ad9,38bdba5f6455c5ff91663a74ccd2338
215,47,literal,1,triplet_209,9167-0e06ca27-06a2-4ece-91b9-e3c27e936ae7,3466b6ecd040e252c215f685ba622927,4871,deb0889d902f08bef51f77a6d7299806,304efa07923fc3c1c681404257d94ad9,38bdba5f6455c5ff91663a74ccd2338
216,48,pragmatic,0,triplet_1048,9167-0e06ca27-06a2-4ece-91b9-e3c27e936ae7,1157d8d6995da5c0290d57214c8512a4,4225,deb0889d902f08bef51f77a6d7299806,304efa07923fc3c1c681404257d94ad9,38bdba5f6455c5ff91663a74ccd2338
217,49,literal,1,triplet_810,9167-0e06ca27-06a2-4ece-91b9-e3c27e936ae7,a45477c29f71d4f37597e1f94410131a,3440,deb0889d902f08bef51f77a6d7299806,304efa07923fc3c1c681404257d94ad9,38bdba5f6455c5ff91663a74ccd2338
218,50,literal,1,triplet_1149,9167-0e06ca27-06a2-4ece-91b9-e3c27e936ae7,f58ac8ac63d5a52d19fb4103277a6b93,3142,deb0889d902f08bef51f77a6d7299806,304efa07923fc3c1c681404257d94ad9,38bdba5f6455c5ff91663a74ccd2338
219,51,literal,0,triplet_967,9167-0e06ca27-06a2-4ece-91b9-e3c27e936ae7,40e5d8e71ee3902a31358207d42bcb21,3658,deb0889d902f08bef51f77a6d7299806,304efa07923fc3c1c681404257d94ad9,38bdba5f6455c5ff91663a74ccd2338
220,52,literal,1,triplet_332,9167-0e06ca27-06a2-4ece-91b9-e3c27e936ae7,4603969ca86e226affb3dd5191e9a4,4872,deb0889d902f08bef51f77a6d7299806,304efa07923fc3c1c681404257d94ad9,38bdba5f6455c5ff91663a74ccd2338
221,53,pragmatic,1,triplet_986,9167-0e06ca27-06a2-4ece-91b9-e3c27e936ae7,cc5dea482768651ed0e93cdb469eb63,5581,deb0889d902f08bef51f77a6d7299806,304efa07923fc3c1c681404257d94ad9,38bdba5f6455c5ff91663a74ccd2338
222,54,pragmatic,0,triplet_455,9167-0e06ca27-06a2-4ece-91b9-e3c27e936ae7,1e1b70bdfafb9d22df2fa7eaa812363c,5508,deb0889d902f08bef51f77a6d7299806,304efa07923fc3c1c681404257d94ad9,38bdba5f6455c5ff91663a74ccd2338
223,55,literal,0,triplet_768,9167-0e06ca27-06a2-4ece-91b9-e3c27e936ae7,4460e0885d82b7b5d9987a7cd00eb98d,4923,deb0889d902f08bef51f77a6d7299806,304efa07923fc3c1c681404257d94ad9,38bdba5f6455c5ff91663a74ccd2338
224,0,literal,0,triplet_95,1260-bdc5c386-9c5e-4384-a84c-98d403f339d2,98f2d21c4dcac477f7628281ecb18112,6129,deb0889d902f08bef51f77a6d7299806,304efa07923fc3c1c681404257d94ad9,38bdba5f6455c5ff91663a74ccd2338
225,1,pragmatic,1,triplet_533,1260-bdc5c386-9c5e-4384-a84c-98d403f339d2,63b5ef650f1020eb7fa0ee8efe00d1ee,6230,deb0889d902f08bef51f77a6d7299806,304efa07923fc3c1c681404257d94ad9,38bdba5f6455c5ff91663a74ccd2338
226,2,pragmatic,0,triplet_81,1260-bdc5c386-9c5e-4384-a84c-98d403f339d2,fc7d038dc7fe2911a75d03186a0409e2,20081,deb0889d902f08bef51f77a6d7299806,304efa07923fc3c1c681404257d94ad9,38bdba5f6455c5ff91663a74ccd2338
227,3,literal,1,triplet_417,1260-bdc5c386-9c5e-4384-a84c-98d403f339d2,51375e5aaac17a8ef7628281ecb18112,8559,deb0889d902f08bef51f77a6d7299806,304efa07923fc3c1c681404257d94ad9,38bdba5f6455c5ff91663a74ccd2338
228,4,literal,1,triplet_35,1260-bdc5c386-9c5e-4384-a84c-98d403f339d2,128517f2992b6fb92057e1ae1c4cc928,8981,deb0889d902f08bef51f77a6d7299806,304efa07923fc3c1c681404257d94ad9,38bdba5f6455c5ff91663a74ccd2338
229,5,literal,1,triplet_730,1260-bdc5c386-9c5e-4384-a84c-98d403f339d2,8f1a661dc1048e36297936c81e7f6629,4244,deb0889d902f08bef51f77a6d7299806,304efa07923fc3c1c681404257d94ad9,38bdba5f6455c5ff91663a74ccd2338
230,6,pragmatic,1,triplet_453,1260-bdc5c386-9c5e-4384-a84c-98d403f339d2,57583ba714a883ce71c3cf047830ec1f,6215,deb0889d902f08bef51f77a6d7299806,304efa07923fc3c1c681404257d94ad9,38bdba5f6455c5ff91663a74ccd2338
231,7,literal,0,triplet_628,1260-bdc5c386-9c5e-4384-a84c-98d403f339d2,1e15f238da6b4bc546b9f3b6ee20ff4b,31682,deb0889d902f08bef51f77a6d7299806,304efa07923fc3c1c681404257d94ad9,38bdba5f6455c5ff91663a74ccd2338
232,8,pragmatic,1,triplet_138,1260-bdc5c386-9c5e-4384-a84c-98d403f339d2,2a2d705d0238396488422a4c20c0b1e6,11623,deb0889d902f08bef51f77a6d7299806,304efa07923fc3c1c681404257d94ad9,38bdba5f6455c5ff91663a74ccd2338
233,9,pragmatic,1,triplet_794,1260-bdc5c386-9c5e-4384-a84c-98d403f339d2,a18a82b239fc07cf433619555ecca8aa,7252,deb0889d902f08bef51f77a6d7299806,304efa07923fc3c1c681404257d94ad9,38bdba5f6455c5ff91663a74ccd2338
234,10,pragmatic,1,triplet_851,1260-bdc5c386-9c5e-4384-a84c-98d403f339d2,ac47b4d30b598978d5a4a04ac21f0578,8085,deb0889d902f08bef51f77a6d7299806,304efa07923fc3c1c681404257d94ad9,38bdba5f6455c5ff91663a74ccd2338
235,11,literal,1,triplet_405,1260-bdc5c386-9c5e-4384-a84c-98d403f339d2,4e3047842ba1a384d2b12aa6a0f050b3,3303,deb0889d902f08bef51f77a6d7299806,304efa07923fc3c1c681404257d94ad9,38bdba5f6455c5ff91663a74ccd2338
236,12,literal,1,triplet_602,1260-bdc5c386-9c5e-4384-a84c-98d403f339d2,71372a09d0dec4f2e3837ef7356e7613,7001,deb0889d902f08bef51f77a6d7299806,304efa07923fc3c1c681404257d94ad9,38bdba5f6455c5ff91663a74ccd2338
237,13,literal,1,triplet_132,1260-bdc5c386-9c5e-4384-a84c-98d403f339d2,2a1d80a0aa67ee7585d33ad8f24c4885,3117,deb0889d902f08bef51f77a6d7299806,304efa07923fc3c1c681404257d94ad9,38bdba5f6455c5ff91663a74ccd2338
238,14,literal,1,triplet_881,1260-bdc5c386-9c5e-4384-a84c-98d403f339d2,b9027939e6c71d844d256d962a5df83b,6559,deb0889d902f08bef51f77a6d7299806,304efa07923fc3c1c681404257d94ad9,38bdba5f6455c5ff91663a74ccd2338
239,15,literal,1,triplet_814,1260-bdc5c386-9c5e-4384-a84c-98d403f339d2,a4d7c8b97066cb74f63e8e405d49b8ce,16498,deb0889d902f08bef51f77a6d7299806,304efa07923fc3c1c681404257d94ad9,38bdba5f6455c5ff91663a74ccd2338
240,16,literal,1,triplet_1178,1260-bdc5c386-9c5e-4384-a84c-98d403f339d2,fd5492b732f41dc3f7628281ecb18112,3815,deb0889d902f08bef51f77a6d7299806,304efa07923fc3c1c681404257d94ad9,38bdba5f6455c5ff91663a74ccd2338
241,17,pragmatic,1,triplet_149,1260-bdc5c386-9c5e-4384-a84c-98d403f339d2,2bb65d6612027f18591999955e20a6d0,3050,deb0889d902f08bef51f77a6d7299806,304efa07923fc3c1c681404257d94ad9,38bdba5f6455c5ff91663a74ccd2338
242,18,pragmatic,1,triplet_389,1260-bdc5c386-9c5e-4384-a84c-98d403f339d2,4a5332f5aaa3144836b0f2a1430e993a,5329,deb0889d902f08bef51f77a6d7299806,304efa07923fc3c1c681404257d94ad9,38bdba5f6455c5ff91663a74ccd2338
243,19,pragmatic,0,triplet_1137,1260-bdc5c386-9c5e-4384-a84c-98d403f339d2,f0f9048f45eed1ab3a8888e78d004b3,3845,deb0889d902f08bef51f77a6d7299806,304efa07923fc3c1c681404257d94ad9,38bdba5f6455c5ff91663a74ccd2338
244,20,pragmatic,1,triplet_362,1260-bdc5c386-9c5e-4384-a84c-98d403f339d2,488041c2e021e8e87b11ae648ea92233,10743,deb0889d902f08bef51f77a6d7299806,304efa07923fc3c1c681404257d94ad9,38bdba5f6455c5ff91663a74ccd2338
245,21,pragmatic,1,triplet_225,1260-bdc5c386-9c5e-4384-a84c-98d403f339d2,374b3757a04c6ab6b9569033586af233,47289,deb0889d902f08bef51f77a6d7299806,304efa07923fc3c1c681404257d94ad9,38bdba5f6455c5ff91663a74ccd2338
246,22,pragmatic,1,triplet_603,1260-bdc5c386-9c5e-4384-a84c-98d403f339d2,7144c29cc7038186d67fae5fccab266,5381,deb0889d902f08bef51f77a6d7299806,304efa07923fc3c1c681404257d94ad9,38bdba5f6455c5ff91663a74ccd2338
247,23,pragmatic,1,triplet_190,1260-bdc5c386-9c5e-4384-a84c-98d403f339d2,3186f9dd5179358b79368d1198f406e7,29245,deb0889d902f08bef51f77a6d7299806,304efa07923fc3c1c681404257d94ad9,38bdba5f6455c5ff91663a74ccd2338
248,24,literal,1,triplet_100,1260-bdc5c386-9c5e-4384-a84c-98d403f339d2,247dd48e4b6c029e4b3c42e318f3affc,6294,deb0889d902f08bef51f77a6d7299806,304efa07923fc3c1c681404257d94ad9,38bdba5f6455c5ff91663a74ccd2338
249,25,pragmatic,0,triplet_487,1260-bdc5c386-9c5e-4384-a84c-98d403f339d2,320261e5f3835f6381f667e2a25e0619,66810,deb0889d902f08bef51f77a6d7299806,304efa07923fc3c1c681404257d94ad9,38bdba5f6455c5ff91663a74ccd2338
250,26,literal,0,triplet_403,1260-bdc5c386-9c5e-4384-a84c-98d403f339d2,d5bd619acad1bed3d2b12aa6a0f050b3,9480,deb0889d902f08bef51f77a6d7299806,304efa07923fc3c1c681404257d94ad9,38bdba5f6455c5ff91663a74ccd2338
251,27,literal,1,triplet_366,1260-bdc5c386-9c5e-4384-a84c-98d403f339d2,48dbd34c00d1a5ccc9daa743e958a401,16321,deb0889d902f08bef51f77a6d7299806,304efa07923fc3c1c681404257d94ad9,38bdba5f6455c5ff91663a74ccd2338
252,28,pragmatic,1,triplet_718,1260-bdc5c386-9c5e-4384-a84c-98d403f339d2,8c4ffe44076e9d4a15f62f0f1afbe530,69224,deb0889d902f08bef51f77a6d7299806,304efa07923fc3c1c681404257d94ad9,38bdba5f6455c5ff91663a74ccd2338
253,29,literal,1,triplet_547,1260-bdc5c386-9c5e-4384-a84c-98d403f339d2,665fc6411855306530221b1717636e3c,3569,deb0889d902f08bef51f77a6d7299806,304efa07923fc3c1c681404257d94ad9,38bdba5f6455c5ff91663a74ccd2338
254,30,pragmatic,1,triplet_664,1260-bdc5c386-9c5e-4384-a84c-98d403f339d2,7a5215c4f74afd1af7c7ad2549a1b15,3592,deb0889d902f08bef51f77a6d7299806,304efa07923fc3c1c681404257d94ad9,38bdba5f6455c5ff91663a74ccd2338
255,31,pragmatic,0,triplet_882,1260-bdc5c386-9c5e-4384-a84c-98d403f339d2,71372c1f20b6a04c43c40c5aa3d5c5b7,4276,deb0889d902f08bef51f77a6d7299806,304efa07923fc3c1c681404257d94ad9,38bdba5f6455c5ff91663a74ccd2338
256,32,pragmatic,1,triplet_974,1260-bdc5c386-9c5e-4384-a84c-98d403f339d2,c94f7f5ec96e10994231039830c7e1d1,5051,deb0889d902f08bef51f77a6d7299806,304efa07923fc3c1c681404257d94ad9,38bdba5f6455c5ff91663a74ccd2338
257,33,pragmatic,0,triplet_498,1260-bdc5c386-9c5e-4384-a84c-98d403f339d2,b7e01301bb1eef41f92f3e7bff4c4ab0,28669,deb0889d902f08bef51f77a6d7299806,304efa07923fc3c1c681404257d94ad9,38bdba5f6455c5ff91663a74ccd2338
258,34,pragmatic,1,triplet_502,1260-bdc5c386-9c5e-4384-a84c-98d403f339d2,5e191b9696ff301e821a29f3de4d7cce,4590,deb0889d902f08bef51f77a6d7299806,304efa07923fc3c1c681404257d94ad9,38bdba5f6455c5ff91663a74ccd2338
259,35,pragmatic,1,triplet_527,1260-bdc5c386-9c5e-4384-a84c-98d403f339d2,624339070f8a749260c69156bdab9446,4566,deb0889d902f08bef51f77a6d7299806,304efa07923fc3c1c681404257d94ad9,38bdba5f6455c5ff91663a74ccd2338
260,36,pragmatic,1,triplet_1064,1260-bdc5c386-9c5e-4384-a84c-98d403f339d2,e1e7e66978b888703f146f1fbd99cb1a,3804,deb0889d902f08bef51f77a6d7299806,304efa07923fc3c1c681404257d94ad9,38bdba5f6455c5ff91663a74ccd2338
261,37,pragmatic,0,triplet_286,1260-bdc5c386-9c5e-4384-a84c-98d403f339d2,b5699ce2511433f3b28ede0f9f5a31e9,2935,deb0889d902f08bef51f77a6d7299806,304efa07923fc3c1c681404257d94ad9,38bdba5f6455c5ff91663a74ccd2338
262,38,pragmatic,1,triplet_728,1260-bdc5c386-9c5e-4384-a84c-98d403f339d2,8e55684da4fb8219d3f6d823f04dd65,4832,deb0889d902f08bef51f77a6d7299806,304efa07923fc3c1c681404257d94ad9,38bdba5f6455c5ff91663a74ccd2338
263,39,pragmatic,1,triplet_907,1260-bdc5c386-9c5e-4384-a84c-98d403f339d2,bcdcb4928e07e4174a623eb2e3317415,4895,deb0889d902f08bef51f77a6d7299806,304efa07923fc3c1c681404257d94ad9,38bdba5f6455c5ff91663a74ccd2338
264,40,literal,1,triplet_470,1260-bdc5c386-9c5e-4384-a84c-98d403f339d2,5b0dd54eced22552b283c8c7333d797,7140,deb0889d902f08bef51f77a6d7299806,304efa07923fc3c1c681404257d94ad9,38bdba5f6455c5ff91663a74ccd2338
265,41,literal,0,triplet_372,1260-bdc5c386-9c5e-4384-a84c-98d403f339d2,bfb93705c05ecd0d31e7ccd4db190c0d,952127,deb0889d902f08bef51f77a6d7299806,304efa07923fc3c1c681404257d94ad9,38bdba5f6455c5ff91663a74ccd2338
266,42,pragmatic,1,triplet_370,1260-bdc5c386-9c5e-4384-a84c-98d403f339d2,490cc736a3ffc2a9c8687ff9b0b4e4ac,2948,deb0889d902f08bef51f77a6d7299806,304efa07923fc3c1c681404257d94ad9,38bdba5f6455c5ff91663a74ccd2338
267,43,pragmatic,1,triplet_898,1260-bdc5c386-9c5e-4384-a84c-98d403f339d2,bca8b73b32108ad6d42ec7e303174a87,4935,deb0889d902f08bef51f77a6d7299806,304efa07923fc3c1c681404257d94ad9,38bdba5f6455c5ff91663a74ccd2338
268,44,literal,1,triplet_203,1260-bdc5c386-9c5e-4384-a84c-98d403f339d2,33f5c19e34d74fa97f07eeccaaddf1d0,6772,deb0889d902f08bef51f77a6d7299806,304efa07923fc3c1c681404257d94ad9,38bdba5f6455c5ff91663a74ccd2338
269,45,literal,1,triplet_1199,1260-bdc5c386-9c5e-4384-a84c-98d403f339d2,ffdc46ab1cfe759ce6fe3612af521500,2936,deb0889d902f08bef51f77a6d7299806,304efa07923fc3c1c681404257d94ad9,38bdba5f6455c5ff91663a74ccd2338
270,46,literal,0,triplet_368,1260-bdc5c386-9c5e-4384-a84c-98d403f339d2,b631b78c2dcc748cba5342d638d0c267,5893,deb0889d902f08bef51f77a6d7299806,304efa07923fc3c1c681404257d94ad9,38bdba5f6455c5ff91663a74ccd2338
271,47,literal,0,triplet_490,1260-bdc5c386-9c5e-4384-a84c-98d403f339d2,b16f1858c1a7c0a65001cb19c4a0eee4,9685,deb0889d902f08bef51f77a6d7299806,304efa07923fc3c1c681404257d94ad9,38bdba5f6455c5ff91663a74ccd2338
272,48,pragmatic,1,triplet_335,1260-bdc5c386-9c5e-4384-a84c-98d403f339d2,465cb28961d2680bbda72093f9b5aa73,40280,deb0889d902f08bef51f77a6d7299806,304efa07923fc3c1c681404257d94ad9,38bdba5f6455c5ff91663a74ccd2338
273,49,literal,0,triplet_91,1260-bdc5c386-9c5e-4384-a84c-98d403f339d2,b9e9eb2d09981218d3c5964623f1547a,3940,deb0889d902f08bef51f77a6d7299806,304efa07923fc3c1c681404257d94ad9,38bdba5f6455c5ff91663a74ccd2338
274,50,literal,0,triplet_1039,1260-bdc5c386-9c5e-4384-a84c-98d403f339d2,4b71f633ddb55c6e309160eb001312fe,4105,deb0889d902f08bef51f77a6d7299806,304efa07923fc3c1c681404257d94ad9,38bdba5f6455c5ff91663a74ccd2338
275,51,pragmatic,1,triplet_904,1260-bdc5c386-9c5e-4384-a84c-98d403f339d2,bccedf688d8e5536eaf288f952624966,4058,deb0889d902f08bef51f77a6d7299806,304efa07923fc3c1c681404257d94ad9,38bdba5f6455c5ff91663a74ccd2338
276,52,literal,1,triplet_369,1260-bdc5c386-9c5e-4384-a84c-98d403f339d2,48dbd34c00d1a5ccc9daa743e958a401,8105,deb0889d902f08bef51f77a6d7299806,304efa07923fc3c1c681404257d94ad9,38bdba5f6455c5ff91663a74ccd2338
277,53,literal,1,triplet_231,1260-bdc5c386-9c5e-4384-a84c-98d403f339d2,3774a2b8c71e70b9f18a36d57b7cced0,5148,deb0889d902f08bef51f77a6d7299806,304efa07923fc3c1c681404257d94ad9,38bdba5f6455c5ff91663a74ccd2338
278,54,pragmatic,0,triplet_383,1260-bdc5c386-9c5e-4384-a84c-98d403f339d2,280fe2696faf0f3a53e14f34c202d656,3264,deb0889d902f08bef51f77a6d7299806,304efa07923fc3c1c681404257d94ad9,38bdba5f6455c5ff91663a74ccd2338
279,55,pragmatic,0,triplet_210,1260-bdc5c386-9c5e-4384-a84c-98d403f339d2,52a96a3c89305673504721639e19f609,4197,deb0889d902f08bef51f77a6d7299806,304efa07923fc3c1c681404257d94ad9,38bdba5f6455c5ff91663a74ccd2338
280,0,literal,0,triplet_745,2732-971bd42e-4eac-4475-ac9a-a5553d903011,ee20e46c542e2268f51f77a6d7299806,4474,deb0889d902f08bef51f77a6d7299806,304efa07923fc3c1c681404257d94ad9,38bdba5f6455c5ff91663a74ccd2338
281,1,pragmatic,1,triplet_391,2732-971bd42e-4eac-4475-ac9a-a5553d903011,4a5332f5aaa3144836b0f2a1430e993a,12277,deb0889d902f08bef51f77a6d7299806,304efa07923fc3c1c681404257d94ad9,38bdba5f6455c5ff91663a74ccd2338
282,2,pragmatic,0,triplet_356,2732-971bd42e-4eac-4475-ac9a-a5553d903011,cc3d9160369d09845e61ef8e2af97499,3455,deb0889d902f08bef51f77a6d7299806,304efa07923fc3c1c681404257d94ad9,38bdba5f6455c5ff91663a74ccd2338
283,3,literal,1,triplet_1137,2732-971bd42e-4eac-4475-ac9a-a5553d903011,f3718bcd0e497868af7c7ad2549a1b15,3532,deb0889d902f08bef51f77a6d7299806,304efa07923fc3c1c681404257d94ad9,38bdba5f6455c5ff91663a74ccd2338
284,0,pragmatic,1,triplet_465,6574-9a40bc6c-6083-4a38-8213-11e1414f29c8,59f4a5d8390c3c3d5fce6078044eb87,3355,deb0889d902f08bef51f77a6d7299806,304efa07923fc3c1c681404257d94ad9,38bdba5f6455c5ff91663a74ccd2338
285,1,pragmatic,1,triplet_868,6574-9a40bc6c-6083-4a38-8213-11e1414f29c8,b7073426bf9332187c564a6b9ce2156f,2942,deb0889d902f08bef51f77a6d7299806,304efa07923fc3c1c681404257d94ad9,38bdba5f6455c5ff91663a74ccd2338
286,2,pragmatic,1,triplet_297,6574-9a40bc6c-6083-4a38-8213-11e1414f29c8,41b90d1977ef7672b9b8f177284f45fc,4216,deb0889d902f08bef51f77a6d7299806,304efa07923fc3c1c681404257d94ad9,38bdba5f6455c5ff91663a74ccd2338
287,3,pragmatic,1,triplet_11,6574-9a40bc6c-6083-4a38-8213-11e1414f29c8,116bcb3b43de74b9df9054bbcf5c6adc,4280,deb0889d902f08bef51f77a6d7299806,304efa07923fc3c1c681404257d94ad9,38bdba5f6455c5ff91663a74ccd2338
288,4,literal,1,triplet_22,6574-9a40bc6c-6083-4a38-8213-11e1414f29c8,11fa9b044482814ef91663a74ccd2338,6561,deb0889d902f08bef51f77a6d7299806,304efa07923fc3c1c681404257d94ad9,38bdba5f6455c5ff91663a74ccd2338
289,5,literal,0,triplet_526,6574-9a40bc6c-6083-4a38-8213-11e1414f29c8,51f4ea68be319fe8990e5087098e19c,3717,deb0889d902f08bef51f77a6d7299806,304efa07923fc3c1c681404257d94ad9,38bdba5f6455c5ff91663a74ccd2338
290,6,literal,1,triplet_230,6574-9a40bc6c-6083-4a38-8213-11e1414f29c8,3774a2b8c71e70b9f18a36d57b7cced0,9014,deb0889d902f08bef51f77a6d7299806,304efa07923fc3c1c681404257d94ad9,38bdba5f6455c5ff91663a74ccd2338
291,7,literal,1,triplet_463,6574-9a40bc6c-6083-4a38-8213-11e1414f29c8,59126ed88bf7735b1817f13b030c6f32,3139,deb0889d902f08bef51f77a6d7299806,304efa07923fc3c1c681404257d94ad9,38bdba5f6455c5ff91663a74ccd2338
292,8,literal,1,triplet_318,6574-9a40bc6c-6083-4a38-8213-11e1414f29c8,45039c59b957063e742728b30848ed03,4797,deb0889d902f08bef51f77a6d7299806,304efa07923fc3c1c681404257d94ad9,38bdba5f6455c5ff91663a74ccd2338
293,9,literal,0,triplet_559,6574-9a40bc6c-6083-4a38-8213-11e1414f29c8,2a87cf850dca72a4a886e56ff3d54c4,4958,deb0889d902f08bef51f77a6d7299806,304efa07923fc3c1c681404257d94ad9,38bdba5f6455c5ff91663a74ccd2338
294,10,pragmatic,1,triplet_1097,6574-9a40bc6c-6083-4a38-8213-11e1414f29c8,e8f20141696f143cdb77753d44aa25f6,2905,deb0889d902f08bef51f77a6d7299806,304efa07923fc3c1c681404257d94ad9,38bdba5f6455c5ff91663a74ccd2338
295,11,pragmatic,1,triplet_890,6574-9a40bc6c-6083-4a38-8213-11e1414f29c8,b998016472e9dd7a9b9f2eb77f5e247e,3125,deb0889d902f08bef51f77a6d7299806,304efa07923fc3c1c681404257d94ad9,38bdba5f6455c5ff91663a74ccd2338
296,12,pragmatic,1,triplet_512,6574-9a40bc6c-6083-4a38-8213-11e1414f29c8,5e89f5cc834553622acd2bb6205825cb,3429,deb0889d902f08bef51f77a6d7299806,304efa07923fc3c1c681404257d94ad9,38bdba5f6455c5ff91663a74ccd2338
297,13,literal,0,triplet_185,6574-9a40bc6c-6083-4a38-8213-11e1414f29c8,dab5b7b9df65d2e2cf0bcb121cf32b53,4406,deb0889d902f08bef51f77a6d7299806,304efa07923fc3c1c681404257d94ad9,38bdba5f6455c5ff91663a74ccd2338
298,14,literal,1,triplet_684,6574-9a40bc6c-6083-4a38-8213-11e1414f29c8,7f8d63acb7b4b5e84d2f52566c6c4e9,2953,deb0889d902f08bef51f77a6d7299806,304efa07923fc3c1c681404257d94ad9,38bdba5f6455c5ff91663a74ccd2338
299,15,literal,1,triplet_904,6574-9a40bc6c-6083-4a38-8213-11e1414f29c8,bccedf688d8e5536eaf288f952624966,2701,deb0889d902f08bef51f77a6d7299806,304efa07923fc3c1c681404257d94ad9,38bdba5f6455c5ff91663a74ccd2338
300,16,literal,1,triplet_141,6574-9a40bc6c-6083-4a38-8213-11e1414f29c8,2a79d429e9effa6de7c7920f6a65a54d,2959,deb0889d902f08bef51f77a6d7299806,304efa07923fc3c1c681404257d94ad9,38bdba5f6455c5ff91663a74ccd2338
301,17,literal,1,triplet_1052,6574-9a40bc6c-6083-4a38-8213-11e1414f29c8,e0311d577cff9d85f6ea7461c0aa61c3,3023,deb0889d902f08bef51f77a6d7299806,304efa07923fc3c1c681404257d94ad9,38bdba5f6455c5ff91663a74ccd2338
302,18,literal,0,triplet_672,6574-9a40bc6c-6083-4a38-8213-11e1414f29c8,f215c608fe63e97d4aada2bcdc05aa43,3031,deb0889d902f08bef51f77a6d7299806,304efa07923fc3c1c681404257d94ad9,38bdba5f6455c5ff91663a74ccd2338
303,19,literal,1,triplet_345,6574-9a40bc6c-6083-4a38-8213-11e1414f29c8,46f6a6e0f239282fc8687ff9b0b4e4ac,2647,deb0889d902f08bef51f77a6d7299806,304efa07923fc3c1c681404257d94ad9,38bdba5f6455c5ff91663a74ccd2338
304,20,pragmatic,1,triplet_692,6574-9a40bc6c-6083-4a38-8213-11e1414f29c8,828d2c47bf56b15c49560f24b21df85,7100,deb0889d902f08bef51f77a6d7299806,304efa07923fc3c1c681404257d94ad9,38bdba5f6455c5ff91663a74ccd2338
305,21,pragmatic,1,triplet_480,6574-9a40bc6c-6083-4a38-8213-11e1414f29c8,5b38b467c20ac734f7c5e1744a5e6f5,3435,deb0889d902f08bef51f77a6d7299806,304efa07923fc3c1c681404257d94ad9,38bdba5f6455c5ff91663a74ccd2338
306,22,pragmatic,1,triplet_594,6574-9a40bc6c-6083-4a38-8213-11e1414f29c8,7051b028c8c1facfced9bf2a92246703,2875,deb0889d902f08bef51f77a6d7299806,304efa07923fc3c1c681404257d94ad9,38bdba5f6455c5ff91663a74ccd2338
307,23,pragmatic,1,triplet_146,6574-9a40bc6c-6083-4a38-8213-11e1414f29c8,2ae70fbab330779e3bff5a09107428a5,5348,deb0889d902f08bef51f77a6d7299806,304efa07923fc3c1c681404257d94ad9,38bdba5f6455c5ff91663a74ccd2338
308,24,pragmatic,1,triplet_457,6574-9a40bc6c-6083-4a38-8213-11e1414f29c8,57cc406d478167a6a6c03a53cf0a14c9,5210,deb0889d902f08bef51f77a6d7299806,304efa07923fc3c1c681404257d94ad9,38bdba5f6455c5ff91663a74ccd2338
309,25,literal,1,triplet_327,6574-9a40bc6c-6083-4a38-8213-11e1414f29c8,453a678dec4e9d40f36ea1eb6542fe7e,5437,deb0889d902f08bef51f77a6d7299806,304efa07923fc3c1c681404257d94ad9,38bdba5f6455c5ff91663a74ccd2338
310,26,literal,1,triplet_37,6574-9a40bc6c-6083-4a38-8213-11e1414f29c8,12f395270a3316d01666e1246e760f82,3331,deb0889d902f08bef51f77a6d7299806,304efa07923fc3c1c681404257d94ad9,38bdba5f6455c5ff91663a74ccd2338
311,27,pragmatic,1,triplet_842,6574-9a40bc6c-6083-4a38-8213-11e1414f29c8,aa0ad3538d0d7b3be6fe3612af521500,3250,deb0889d902f08bef51f77a6d7299806,304efa07923fc3c1c681404257d94ad9,38bdba5f6455c5ff91663a74ccd2338
312,28,literal,0,triplet_601,6574-9a40bc6c-6083-4a38-8213-11e1414f29c8,ff5a945aef7a68ffcf9ff3ee543c2925,4764,deb0889d902f08bef51f77a6d7299806,304efa07923fc3c1c681404257d94ad9,38bdba5f6455c5ff91663a74ccd2338
313,29,literal,1,triplet_1044,6574-9a40bc6c-6083-4a38-8213-11e1414f29c8,deb0889d902f08bef51f77a6d7299806,4063,deb0889d902f08bef51f77a6d7299806,304efa07923fc3c1c681404257d94ad9,38bdba5f6455c5ff91663a74ccd2338
314,30,literal,1,triplet_990,6574-9a40bc6c-6083-4a38-8213-11e1414f29c8,ce242d5e5e3f4befb13cfeddf8d6bfe0,2891,deb0889d902f08bef51f77a6d7299806,304efa07923fc3c1c681404257d94ad9,38bdba5f6455c5ff91663a74ccd2338
315,31,pragmatic,1,triplet_622,6574-9a40bc6c-6083-4a38-8213-11e1414f29c8,74625aaed8902197f51f77a6d7299806,3021,deb0889d902f08bef51f77a6d7299806,304efa07923fc3c1c681404257d94ad9,38bdba5f6455c5ff91663a74ccd2338
316,32,literal,0,triplet_73,6574-9a40bc6c-6083-4a38-8213-11e1414f29c8,52310bca00e6a3671201d487ecde379e,3650,deb0889d902f08bef51f77a6d7299806,304efa07923fc3c1c681404257d94ad9,38bdba5f6455c5ff91663a74ccd2338
317,33,pragmatic,0,triplet_270,6574-9a40bc6c-6083-4a38-8213-11e1414f29c8,7824e41c86f9be776383f517a315e69e,5991,deb0889d902f08bef51f77a6d7299806,304efa07923fc3c1c681404257d94ad9,38bdba5f6455c5ff91663a74ccd2338
318,34,pragmatic,0,triplet_426,6574-9a40bc6c-6083-4a38-8213-11e1414f29c8,4ae3ee61ebfd4d7bc05575120a46cd3b,4575,deb0889d902f08bef51f77a6d7299806,304efa07923fc3c1c681404257d94ad9,38bdba5f6455c5ff91663a74ccd2338
319,35,pragmatic,1,triplet_318,6574-9a40bc6c-6083-4a38-8213-11e1414f29c8,45039c59b957063e742728b30848ed03,4365,deb0889d902f08bef51f77a6d7299806,304efa07923fc3c1c681404257d94ad9,38bdba5f6455c5ff91663a74ccd2338
320,36,literal,0,triplet_1032,6574-9a40bc6c-6083-4a38-8213-11e1414f29c8,ff969b22a8de5eac30e06a011e63236a,7703,deb0889d902f08bef51f77a6d7299806,304efa07923fc3c1c681404257d94ad9,38bdba5f6455c5ff91663a74ccd2338
321,37,literal,1,triplet_780,6574-9a40bc6c-6083-4a38-8213-11e1414f29c8,9d961de6d462a7619fb4103277a6b93,4017,deb0889d902f08bef51f77a6d7299806,304efa07923fc3c1c681404257d94ad9,38bdba5f6455c5ff91663a74ccd2338
322,38,pragmatic,1,triplet_971,6574-9a40bc6c-6083-4a38-8213-11e1414f29c8,c8d6e4e789a0c6a7eaeab1f0c9120b7,4889,deb0889d902f08bef51f77a6d7299806,304efa07923fc3c1c681404257d94ad9,38bdba5f6455c5ff91663a74ccd2338
323,39,literal,0,triplet_212,6574-9a40bc6c-6083-4a38-8213-11e1414f29c8,674f8f89f68491ff38a7c518e9c1b4ce,4069,deb0889d902f08bef51f77a6d7299806,304efa07923fc3c1c681404257d94ad9,38bdba5f6455c5ff91663a74ccd2338
324,40,pragmatic,0,triplet_80,6574-9a40bc6c-6083-4a38-8213-11e1414f29c8,a9cc6920422b9d9c2af8b1d491b7ebc,4966,deb0889d902f08bef51f77a6d7299806,304efa07923fc3c1c681404257d94ad9,38bdba5f6455c5ff91663a74ccd2338
325,41,literal,1,triplet_176,6574-9a40bc6c-6083-4a38-8213-11e1414f29c8,30074024ad3c581a19fb4103277a6b93,4063,deb0889d902f08bef51f77a6d7299806,304efa07923fc3c1c681404257d94ad9,38bdba5f6455c5ff91663a74ccd2338
326,42,literal,1,triplet_480,6574-9a40bc6c-6083-4a38-8213-11e1414f29c8,5b38b467c20ac734f7c5e1744a5e6f5,4357,deb0889d902f08bef51f77a6d7299806,304efa07923fc3c1c681404257d94ad9,38bdba5f6455c5ff91663a74ccd2338
327,43,pragmatic,1,triplet_147,6574-9a40bc6c-6083-4a38-8213-11e1414f29c8,2bb65d6612027f18591999955e20a6d0,5413,deb0889d902f08bef51f77a6d7299806,304efa07923fc3c1c681404257d94ad9,38bdba5f6455c5ff91663a74ccd2338
328,44,literal,1,triplet_194,6574-9a40bc6c-6083-4a38-8213-11e1414f29c8,3297a632aee6ac55dbbc9440457e303e,3617,deb0889d902f08bef51f77a6d7299806,304efa07923fc3c1c681404257d94ad9,38bdba5f6455c5ff91663a74ccd2338
329,45,literal,1,triplet_556,6574-9a40bc6c-6083-4a38-8213-11e1414f29c8,682bbcd00c5287a39d365481aaba80e,3842,deb0889d902f08bef51f77a6d7299806,304efa07923fc3c1c681404257d94ad9,38bdba5f6455c5ff91663a74ccd2338
330,46,pragmatic,0,triplet_559,6574-9a40bc6c-6083-4a38-8213-11e1414f29c8,2a87cf850dca72a4a886e56ff3d54c4,3779,deb0889d902f08bef51f77a6d7299806,304efa07923fc3c1c681404257d94ad9,38bdba5f6455c5ff91663a74ccd2338
331,47,pragmatic,0,triplet_583,6574-9a40bc6c-6083-4a38-8213-11e1414f29c8,e6719610fd2c44c99295da7959c963a1,2850,deb0889d902f08bef51f77a6d7299806,304efa07923fc3c1c681404257d94ad9,38bdba5f6455c5ff91663a74ccd2338
332,48,literal,1,triplet_505,6574-9a40bc6c-6083-4a38-8213-11e1414f29c8,5e191b9696ff301e821a29f3de4d7cce,3655,deb0889d902f08bef51f77a6d7299806,304efa07923fc3c1c681404257d94ad9,38bdba5f6455c5ff91663a74ccd2338
333,49,pragmatic,1,triplet_992,6574-9a40bc6c-6083-4a38-8213-11e1414f29c8,ce2ff5c3a103b2c17ad11050da24bb12,3577,deb0889d902f08bef51f77a6d7299806,304efa07923fc3c1c681404257d94ad9,38bdba5f6455c5ff91663a74ccd2338
334,50,literal,1,triplet_333,6574-9a40bc6c-6083-4a38-8213-11e1414f29c8,465cb28961d2680bbda72093f9b5aa73,3982,deb0889d902f08bef51f77a6d7299806,304efa07923fc3c1c681404257d94ad9,38bdba5f6455c5ff91663a74ccd2338
335,51,literal,0,triplet_748,6574-9a40bc6c-6083-4a38-8213-11e1414f29c8,9ea7facf01e448f328a1548e344f0e2e,3844,deb0889d902f08bef51f77a6d7299806,304efa07923fc3c1c681404257d94ad9,38bdba5f6455c5ff91663a74ccd2338
336,52,literal,1,triplet_94,6574-9a40bc6c-6083-4a38-8213-11e1414f29c8,23218bd682d522d19fb4103277a6b93,2726,deb0889d902f08bef51f77a6d7299806,304efa07923fc3c1c681404257d94ad9,38bdba5f6455c5ff91663a74ccd2338
337,53,literal,1,triplet_983,6574-9a40bc6c-6083-4a38-8213-11e1414f29c8,c9dd1e508be23628d0176f9a144100cd,3327,deb0889d902f08bef51f77a6d7299806,304efa07923fc3c1c681404257d94ad9,38bdba5f6455c5ff91663a74ccd2338
338,54,literal,1,triplet_815,6574-9a40bc6c-6083-4a38-8213-11e1414f29c8,a54ac4580f151f89278d386bfa54545,2554,deb0889d902f08bef51f77a6d7299806,304efa07923fc3c1c681404257d94ad9,38bdba5f6455c5ff91663a74ccd2338
339,55,pragmatic,1,triplet_1117,6574-9a40bc6c-6083-4a38-8213-11e1414f29c8,ee4858f78dc33591100e9bd5c4b0af54,3639,deb0889d902f08bef51f77a6d7299806,304efa07923fc3c1c681404257d94ad9,38bdba5f6455c5ff91663a74ccd2338
340,0,pragmatic,1,triplet_255,7141-d5de1c57-db10-48e7-84be-9a3eb4bfde06,3a98a93f381ff5fb4b3c42e318f3affc,7667,deb0889d902f08bef51f77a6d7299806,304efa07923fc3c1c681404257d94ad9,38bdba5f6455c5ff91663a74ccd2338
341,1,pragmatic,1,triplet_499,7141-d5de1c57-db10-48e7-84be-9a3eb4bfde06,5d6a45296fa6c1ff7c21c7b1e8b3e343,7677,deb0889d902f08bef51f77a6d7299806,304efa07923fc3c1c681404257d94ad9,38bdba5f6455c5ff91663a74ccd2338
342,2,pragmatic,1,triplet_832,7141-d5de1c57-db10-48e7-84be-9a3eb4bfde06,a838d73a1ae66934b161f36d4e309050,5121,deb0889d902f08bef51f77a6d7299806,304efa07923fc3c1c681404257d94ad9,38bdba5f6455c5ff91663a74ccd2338
343,3,literal,1,triplet_86,7141-d5de1c57-db10-48e7-84be-9a3eb4bfde06,22740f20eddc5420492d9da2668ec34c,6161,deb0889d902f08bef51f77a6d7299806,304efa07923fc3c1c681404257d94ad9,38bdba5f6455c5ff91663a74ccd2338
344,4,pragmatic,1,triplet_1129,7141-d5de1c57-db10-48e7-84be-9a3eb4bfde06,f04698af574cb9847edf3a3d7d1bacae,5838,deb0889d902f08bef51f77a6d7299806,304efa07923fc3c1c681404257d94ad9,38bdba5f6455c5ff91663a74ccd2338
345,5,pragmatic,1,triplet_232,7141-d5de1c57-db10-48e7-84be-9a3eb4bfde06,37754da896362bcf28c0cecb7de2397a,4512,deb0889d902f08bef51f77a6d7299806,304efa07923fc3c1c681404257d94ad9,38bdba5f6455c5ff91663a74ccd2338
346,6,literal,0,triplet_980,7141-d5de1c57-db10-48e7-84be-9a3eb4bfde06,5390dede41d523f71a782a4379556c7,4914,deb0889d902f08bef51f77a6d7299806,304efa07923fc3c1c681404257d94ad9,38bdba5f6455c5ff91663a74ccd2338
347,7,pragmatic,1,triplet_975,7141-d5de1c57-db10-48e7-84be-9a3eb4bfde06,c993ac723dbaf479a4929a32e32d23f3,3987,deb0889d902f08bef51f77a6d7299806,304efa07923fc3c1c681404257d94ad9,38bdba5f6455c5ff91663a74ccd2338
348,8,literal,0,triplet_580,7141-d5de1c57-db10-48e7-84be-9a3eb4bfde06,4030ea84b560b857febad4f49b26ec52,5776,deb0889d902f08bef51f77a6d7299806,304efa07923fc3c1c681404257d94ad9,38bdba5f6455c5ff91663a74ccd2338
349,9,literal,1,triplet_573,7141-d5de1c57-db10-48e7-84be-9a3eb4bfde06,6d83067056915f4dd2f15044a9418e0d,4562,deb0889d902f08bef51f77a6d7299806,304efa07923fc3c1c681404257d94ad9,38bdba5f6455c5ff91663a74ccd2338
350,10,pragmatic,0,triplet_572,7141-d5de1c57-db10-48e7-84be-9a3eb4bfde06,7644e30dc0d88481a3d974b4624d6717,7503,deb0889d902f08bef51f77a6d7299806,304efa07923fc3c1c681404257d94ad9,38bdba5f6455c5ff91663a74ccd2338
351,11,pragmatic,0,triplet_549,7141-d5de1c57-db10-48e7-84be-9a3eb4bfde06,bf236db6dfa517aa456cbf78e1e89022,7288,deb0889d902f08bef51f77a6d7299806,304efa07923fc3c1c681404257d94ad9,38bdba5f6455c5ff91663a74ccd2338
352,12,literal,1,triplet_180,7141-d5de1c57-db10-48e7-84be-9a3eb4bfde06,30cc0df021a947e9706ce6d0dff37e85,5307,deb0889d902f08bef51f77a6d7299806,304efa07923fc3c1c681404257d94ad9,38bdba5f6455c5ff91663a74ccd2338
353,13,pragmatic,1,triplet_611,7141-d5de1c57-db10-48e7-84be-9a3eb4bfde06,7250e86b4feb699aa08cd647a48e605d,4948,deb0889d902f08bef51f77a6d7299806,304efa07923fc3c1c681404257d94ad9,38bdba5f6455c5ff91663a74ccd2338
354,14,literal,0,triplet_142,7141-d5de1c57-db10-48e7-84be-9a3eb4bfde06,74f246c1f7633eb31d1a08d58541ab5,7249,deb0889d902f08bef51f77a6d7299806,304efa07923fc3c1c681404257d94ad9,38bdba5f6455c5ff91663a74ccd2338
355,15,literal,0,triplet_1194,7141-d5de1c57-db10-48e7-84be-9a3eb4bfde06,c2e50f21663db36af8f5708c6c7585cb,5962,deb0889d902f08bef51f77a6d7299806,304efa07923fc3c1c681404257d94ad9,38bdba5f6455c5ff91663a74ccd2338
356,16,pragmatic,1,triplet_928,7141-d5de1c57-db10-48e7-84be-9a3eb4bfde06,c3da3ae20c1f92650640e24a5497a2b,7184,deb0889d902f08bef51f77a6d7299806,304efa07923fc3c1c681404257d94ad9,38bdba5f6455c5ff91663a74ccd2338
357,17,literal,0,triplet_782,7141-d5de1c57-db10-48e7-84be-9a3eb4bfde06,d987dc40c90907276bc601efa799c927,8795,deb0889d902f08bef51f77a6d7299806,304efa07923fc3c1c681404257d94ad9,38bdba5f6455c5ff91663a74ccd2338
358,18,pragmatic,1,triplet_476,7141-d5de1c57-db10-48e7-84be-9a3eb4bfde06,5b38b467c20ac734f7c5e1744a5e6f5,4451,deb0889d902f08bef51f77a6d7299806,304efa07923fc3c1c681404257d94ad9,38bdba5f6455c5ff91663a74ccd2338
359,19,literal,0,triplet_1138,7141-d5de1c57-db10-48e7-84be-9a3eb4bfde06,f0f9048f45eed1ab3a8888e78d004b3,6300,deb0889d902f08bef51f77a6d7299806,304efa07923fc3c1c681404257d94ad9,38bdba5f6455c5ff91663a74ccd2338
360,20,literal,0,triplet_478,7141-d5de1c57-db10-48e7-84be-9a3eb4bfde06,acbc30795b9826ec283b00891f680579,9623,deb0889d902f08bef51f77a6d7299806,304efa07923fc3c1c681404257d94ad9,38bdba5f6455c5ff91663a74ccd2338
361,21,pragmatic,1,triplet_891,7141-d5de1c57-db10-48e7-84be-9a3eb4bfde06,b998016472e9dd7a9b9f2eb77f5e247e,3912,deb0889d902f08bef51f77a6d7299806,304efa07923fc3c1c681404257d94ad9,38bdba5f6455c5ff91663a74ccd2338
362,22,pragmatic,1,triplet_775,7141-d5de1c57-db10-48e7-84be-9a3eb4bfde06,9bda786a525b1ef93a11565e5be9cf53,4994,deb0889d902f08bef51f77a6d7299806,304efa07923fc3c1c681404257d94ad9,38bdba5f6455c5ff91663a74ccd2338
363,23,literal,1,triplet_1030,7141-d5de1c57-db10-48e7-84be-9a3eb4bfde06,d7f35cad0f4ab17788dcbe86402c7c15,8744,deb0889d902f08bef51f77a6d7299806,304efa07923fc3c1c681404257d94ad9,38bdba5f6455c5ff91663a74ccd2338
364,24,pragmatic,1,triplet_610,7141-d5de1c57-db10-48e7-84be-9a3eb4bfde06,7250e86b4feb699aa08cd647a48e605d,7964,deb0889d902f08bef51f77a6d7299806,304efa07923fc3c1c681404257d94ad9,38bdba5f6455c5ff91663a74ccd2338
365,25,literal,0,triplet_275,7141-d5de1c57-db10-48e7-84be-9a3eb4bfde06,f54c7cbbd49ec8eb429c1439cde9f6d2,8587,deb0889d902f08bef51f77a6d7299806,304efa07923fc3c1c681404257d94ad9,38bdba5f6455c5ff91663a74ccd2338
366,26,pragmatic,1,triplet_691,7141-d5de1c57-db10-48e7-84be-9a3eb4bfde06,828d2c47bf56b15c49560f24b21df85,6237,deb0889d902f08bef51f77a6d7299806,304efa07923fc3c1c681404257d94ad9,38bdba5f6455c5ff91663a74ccd2338
367,27,literal,1,triplet_1130,7141-d5de1c57-db10-48e7-84be-9a3eb4bfde06,f04698af574cb9847edf3a3d7d1bacae,3673,deb0889d902f08bef51f77a6d7299806,304efa07923fc3c1c681404257d94ad9,38bdba5f6455c5ff91663a74ccd2338
368,28,pragmatic,1,triplet_313,7141-d5de1c57-db10-48e7-84be-9a3eb4bfde06,4422c64dffcd8662eaf288f952624966,5761,deb0889d902f08bef51f77a6d7299806,304efa07923fc3c1c681404257d94ad9,38bdba5f6455c5ff91663a74ccd2338
369,29,literal,0,triplet_811,7141-d5de1c57-db10-48e7-84be-9a3eb4bfde06,76de2f91710e9bd85f31725202dd5bbc,4896,deb0889d902f08bef51f77a6d7299806,304efa07923fc3c1c681404257d94ad9,38bdba5f6455c5ff91663a74ccd2338
370,30,literal,0,triplet_897,7141-d5de1c57-db10-48e7-84be-9a3eb4bfde06,bf0ba9e2ebcfb431e6fe3612af521500,5798,deb0889d902f08bef51f77a6d7299806,304efa07923fc3c1c681404257d94ad9,38bdba5f6455c5ff91663a74ccd2338
371,31,literal,0,triplet_642,7141-d5de1c57-db10-48e7-84be-9a3eb4bfde06,b2c838917b9f0fb68a40e1421d6a3cbf,5521,deb0889d902f08bef51f77a6d7299806,304efa07923fc3c1c681404257d94ad9,38bdba5f6455c5ff91663a74ccd2338
372,32,literal,1,triplet_653,7141-d5de1c57-db10-48e7-84be-9a3eb4bfde06,7910a6262ad8fc113fa02fd212ba0e5f,7866,deb0889d902f08bef51f77a6d7299806,304efa07923fc3c1c681404257d94ad9,38bdba5f6455c5ff91663a74ccd2338
373,33,literal,1,triplet_11,7141-d5de1c57-db10-48e7-84be-9a3eb4bfde06,116bcb3b43de74b9df9054bbcf5c6adc,6754,deb0889d902f08bef51f77a6d7299806,304efa07923fc3c1c681404257d94ad9,38bdba5f6455c5ff91663a74ccd2338
374,34,literal,1,triplet_941,7141-d5de1c57-db10-48e7-84be-9a3eb4bfde06,c67a255a26e30abb6b9f3980da0b1dff,4435,deb0889d902f08bef51f77a6d7299806,304efa07923fc3c1c681404257d94ad9,38bdba5f6455c5ff91663a74ccd2338
375,35,literal,1,triplet_709,7141-d5de1c57-db10-48e7-84be-9a3eb4bfde06,8979c1aaa6675009bf80985a99195eb8,7060,deb0889d902f08bef51f77a6d7299806,304efa07923fc3c1c681404257d94ad9,38bdba5f6455c5ff91663a74ccd2338
376,36,literal,1,triplet_923,7141-d5de1c57-db10-48e7-84be-9a3eb4bfde06,c08c39b6ae7a44ff3935ca98160cbcab,7379,deb0889d902f08bef51f77a6d7299806,304efa07923fc3c1c681404257d94ad9,38bdba5f6455c5ff91663a74ccd2338
377,37,literal,1,triplet_495,7141-d5de1c57-db10-48e7-84be-9a3eb4bfde06,5d60590d192c52553a23b8cb1a985a11,3680,deb0889d902f08bef51f77a6d7299806,304efa07923fc3c1c681404257d94ad9,38bdba5f6455c5ff91663a74ccd2338
378,38,literal,1,triplet_124,7141-d5de1c57-db10-48e7-84be-9a3eb4bfde06,280fe2696faf0f3a53e14f34c202d656,4236,deb0889d902f08bef51f77a6d7299806,304efa07923fc3c1c681404257d94ad9,38bdba5f6455c5ff91663a74ccd2338
379,39,pragmatic,0,triplet_758,7141-d5de1c57-db10-48e7-84be-9a3eb4bfde06,c7c7079b7555bf075e994da5ba753c34,6042,deb0889d902f08bef51f77a6d7299806,304efa07923fc3c1c681404257d94ad9,38bdba5f6455c5ff91663a74ccd2338
380,40,literal,0,triplet_213,7141-d5de1c57-db10-48e7-84be-9a3eb4bfde06,674f8f89f68491ff38a7c518e9c1b4ce,9013,deb0889d902f08bef51f77a6d7299806,304efa07923fc3c1c681404257d94ad9,38bdba5f6455c5ff91663a74ccd2338
381,41,pragmatic,1,triplet_481,7141-d5de1c57-db10-48e7-84be-9a3eb4bfde06,5bfb8edf221c7b0e84edfe802bb43dcd,8289,deb0889d902f08bef51f77a6d7299806,304efa07923fc3c1c681404257d94ad9,38bdba5f6455c5ff91663a74ccd2338
382,42,literal,1,triplet_659,7141-d5de1c57-db10-48e7-84be-9a3eb4bfde06,79397634d362eaded96cac5d008c9fc3,7944,deb0889d902f08bef51f77a6d7299806,304efa07923fc3c1c681404257d94ad9,38bdba5f6455c5ff91663a74ccd2338
383,43,literal,1,triplet_595,7141-d5de1c57-db10-48e7-84be-9a3eb4bfde06,7051b028c8c1facfced9bf2a92246703,4496,deb0889d902f08bef51f77a6d7299806,304efa07923fc3c1c681404257d94ad9,38bdba5f6455c5ff91663a74ccd2338
384,44,pragmatic,0,triplet_354,7141-d5de1c57-db10-48e7-84be-9a3eb4bfde06,b46361e53253c07b6fa2cfca412075ea,8672,deb0889d902f08bef51f77a6d7299806,304efa07923fc3c1c681404257d94ad9,38bdba5f6455c5ff91663a74ccd2338
385,45,literal,1,triplet_228,7141-d5de1c57-db10-48e7-84be-9a3eb4bfde06,375aab9251b2df59b7a68845946bb67f,5569,deb0889d902f08bef51f77a6d7299806,304efa07923fc3c1c681404257d94ad9,38bdba5f6455c5ff91663a74ccd2338
386,46,pragmatic,1,triplet_694,7141-d5de1c57-db10-48e7-84be-9a3eb4bfde06,834af6ad2a1d5581492d9da2668ec34c,12493,deb0889d902f08bef51f77a6d7299806,304efa07923fc3c1c681404257d94ad9,38bdba5f6455c5ff91663a74ccd2338
387,47,literal,0,triplet_253,7141-d5de1c57-db10-48e7-84be-9a3eb4bfde06,97df0e7773e51feb331fc18393f04d2a,7231,deb0889d902f08bef51f77a6d7299806,304efa07923fc3c1c681404257d94ad9,38bdba5f6455c5ff91663a74ccd2338
388,48,literal,1,triplet_1037,7141-d5de1c57-db10-48e7-84be-9a3eb4bfde06,db0925930500d67d7094f114e4783e96,4041,deb0889d902f08bef51f77a6d7299806,304efa07923fc3c1c681404257d94ad9,38bdba5f6455c5ff91663a74ccd2338
389,49,pragmatic,1,triplet_1081,7141-d5de1c57-db10-48e7-84be-9a3eb4bfde06,e57aa2d477a818ed2af6ec758865822,5243,deb0889d902f08bef51f77a6d7299806,304efa07923fc3c1c681404257d94ad9,38bdba5f6455c5ff91663a74ccd2338
390,50,literal,1,triplet_548,7141-d5de1c57-db10-48e7-84be-9a3eb4bfde06,66e204998b6c4f06ffe5cbaf6252d67f,3869,deb0889d902f08bef51f77a6d7299806,304efa07923fc3c1c681404257d94ad9,38bdba5f6455c5ff91663a74ccd2338
391,51,pragmatic,1,triplet_1010,7141-d5de1c57-db10-48e7-84be-9a3eb4bfde06,d56da491d5dabacd4453212030cbb3c9,7021,deb0889d902f08bef51f77a6d7299806,304efa07923fc3c1c681404257d94ad9,38bdba5f6455c5ff91663a74ccd2338
392,52,literal,1,triplet_82,7141-d5de1c57-db10-48e7-84be-9a3eb4bfde06,226f096dbce49857bdfa5e0753fa3240,3979,deb0889d902f08bef51f77a6d7299806,304efa07923fc3c1c681404257d94ad9,38bdba5f6455c5ff91663a74ccd2338
393,53,literal,0,triplet_446,7141-d5de1c57-db10-48e7-84be-9a3eb4bfde06,ee665ce6679ac8cfb502ac2eb9128f9a,5959,deb0889d902f08bef51f77a6d7299806,304efa07923fc3c1c681404257d94ad9,38bdba5f6455c5ff91663a74ccd2338
394,54,literal,0,triplet_561,7141-d5de1c57-db10-48e7-84be-9a3eb4bfde06,5fe56a4a9d5508c3b2373df00b89e5d,5079,deb0889d902f08bef51f77a6d7299806,304efa07923fc3c1c681404257d94ad9,38bdba5f6455c5ff91663a74ccd2338
395,55,literal,0,triplet_356,7141-d5de1c57-db10-48e7-84be-9a3eb4bfde06,cc3d9160369d09845e61ef8e2af97499,5242,deb0889d902f08bef51f77a6d7299806,304efa07923fc3c1c681404257d94ad9,38bdba5f6455c5ff91663a74ccd2338
396,0,pragmatic,0,triplet_92,9028-6375834b-c3ce-4f45-a2e4-0fd559058756,28a0b2a5afc96922ba63bc389be1ed5a,8137,deb0889d902f08bef51f77a6d7299806,304efa07923fc3c1c681404257d94ad9,38bdba5f6455c5ff91663a74ccd2338
397,1,pragmatic,0,triplet_66,9028-6375834b-c3ce-4f45-a2e4-0fd559058756,1bb81d54471d7c1df51f77a6d7299806,9204,deb0889d902f08bef51f77a6d7299806,304efa07923fc3c1c681404257d94ad9,38bdba5f6455c5ff91663a74ccd2338
398,2,literal,1,triplet_454,9028-6375834b-c3ce-4f45-a2e4-0fd559058756,57c6cf844c09c5d8b40f0ac0fb9a650d,6520,deb0889d902f08bef51f77a6d7299806,304efa07923fc3c1c681404257d94ad9,38bdba5f6455c5ff91663a74ccd2338
399,3,literal,0,triplet_625,9028-6375834b-c3ce-4f45-a2e4-0fd559058756,1e15f238da6b4bc546b9f3b6ee20ff4b,6124,deb0889d902f08bef51f77a6d7299806,304efa07923fc3c1c681404257d94ad9,38bdba5f6455c5ff91663a74ccd2338
400,4,literal,0,triplet_948,9028-6375834b-c3ce-4f45-a2e4-0fd559058756,11f1511799d033ff7962150cab9888d6,5968,deb0889d902f08bef51f77a6d7299806,304efa07923fc3c1c681404257d94ad9,38bdba5f6455c5ff91663a74ccd2338
401,5,literal,1,triplet_188,9028-6375834b-c3ce-4f45-a2e4-0fd559058756,3186f9dd5179358b79368d1198f406e7,4755,deb0889d902f08bef51f77a6d7299806,304efa07923fc3c1c681404257d94ad9,38bdba5f6455c5ff91663a74ccd2338
402,6,literal,1,triplet_491,9028-6375834b-c3ce-4f45-a2e4-0fd559058756,5d5ea6ab578db7ad331fc18393f04d2a,5112,deb0889d902f08bef51f77a6d7299806,304efa07923fc3c1c681404257d94ad9,38bdba5f6455c5ff91663a74ccd2338
403,7,pragmatic,1,triplet_1042,9028-6375834b-c3ce-4f45-a2e4-0fd559058756,ddb53381dfd0a2d7d2b12aa6a0f050b3,4335,deb0889d902f08bef51f77a6d7299806,304efa07923fc3c1c681404257d94ad9,38bdba5f6455c5ff91663a74ccd2338
404,8,literal,0,triplet_427,9028-6375834b-c3ce-4f45-a2e4-0fd559058756,9cd5f64caf7077ec3266c035d8afd13b,6327,deb0889d902f08bef51f77a6d7299806,304efa07923fc3c1c681404257d94ad9,38bdba5f6455c5ff91663a74ccd2338
405,9,pragmatic,1,triplet_524,9028-6375834b-c3ce-4f45-a2e4-0fd559058756,61fb89fca404e37f598bcf8ac674b63d,4816,deb0889d902f08bef51f77a6d7299806,304efa07923fc3c1c681404257d94ad9,38bdba5f6455c5ff91663a74ccd2338
406,10,pragmatic,1,triplet_141,9028-6375834b-c3ce-4f45-a2e4-0fd559058756,2a79d429e9effa6de7c7920f6a65a54d,4374,deb0889d902f08bef51f77a6d7299806,304efa07923fc3c1c681404257d94ad9,38bdba5f6455c5ff91663a74ccd2338
407,11,literal,1,triplet_1082,9028-6375834b-c3ce-4f45-a2e4-0fd559058756,e57aa2d477a818ed2af6ec758865822,4777,deb0889d902f08bef51f77a6d7299806,304efa07923fc3c1c681404257d94ad9,38bdba5f6455c5ff91663a74ccd2338
408,12,pragmatic,0,triplet_171,9028-6375834b-c3ce-4f45-a2e4-0fd559058756,b6d43a52bc2eb8504d5af97121b5f,6031,deb0889d902f08bef51f77a6d7299806,304efa07923fc3c1c681404257d94ad9,38bdba5f6455c5ff91663a74ccd2338
409,13,pragmatic,1,triplet_42,9028-6375834b-c3ce-4f45-a2e4-0fd559058756,1762c260d358a1751b17743c18fb63dc,7767,deb0889d902f08bef51f77a6d7299806,304efa07923fc3c1c681404257d94ad9,38bdba5f6455c5ff91663a74ccd2338
410,14,pragmatic,1,triplet_523,9028-6375834b-c3ce-4f45-a2e4-0fd559058756,61fb89fca404e37f598bcf8ac674b63d,4342,deb0889d902f08bef51f77a6d7299806,304efa07923fc3c1c681404257d94ad9,38bdba5f6455c5ff91663a74ccd2338
411,15,pragmatic,0,triplet_614,9028-6375834b-c3ce-4f45-a2e4-0fd559058756,e1e3796be1c4313f9a59e20336b93b69,5758,deb0889d902f08bef51f77a6d7299806,304efa07923fc3c1c681404257d94ad9,38bdba5f6455c5ff91663a74ccd2338
412,16,literal,0,triplet_600,9028-6375834b-c3ce-4f45-a2e4-0fd559058756,5f76562ab6c843cb575f9747ff6fb5e8,5680,deb0889d902f08bef51f77a6d7299806,304efa07923fc3c1c681404257d94ad9,38bdba5f6455c5ff91663a74ccd2338
413,17,literal,0,triplet_1153,9028-6375834b-c3ce-4f45-a2e4-0fd559058756,740cc6d4d1c6901eadb91c074e672e22,4708,deb0889d902f08bef51f77a6d7299806,304efa07923fc3c1c681404257d94ad9,38bdba5f6455c5ff91663a74ccd2338
414,18,pragmatic,1,triplet_307,9028-6375834b-c3ce-4f45-a2e4-0fd559058756,432ed2387d4982a635836c728d324152,4925,deb0889d902f08bef51f77a6d7299806,304efa07923fc3c1c681404257d94ad9,38bdba5f6455c5ff91663a74ccd2338
415,19,literal,0,triplet_634,9028-6375834b-c3ce-4f45-a2e4-0fd559058756,9d961de6d462a7619fb4103277a6b93,10266,deb0889d902f08bef51f77a6d7299806,304efa07923fc3c1c681404257d94ad9,38bdba5f6455c5ff91663a74ccd2338
416,20,pragmatic,1,triplet_642,9028-6375834b-c3ce-4f45-a2e4-0fd559058756,7661a325724ae00acd0362ae35d1beb4,5360,deb0889d902f08bef51f77a6d7299806,304efa07923fc3c1c681404257d94ad9,38bdba5f6455c5ff91663a74ccd2338
417,21,literal,1,triplet_4,9028-6375834b-c3ce-4f45-a2e4-0fd559058756,1033ee86cc8bac4390962e4fb7072b86,5089,deb0889d902f08bef51f77a6d7299806,304efa07923fc3c1c681404257d94ad9,38bdba5f6455c5ff91663a74ccd2338
418,22,literal,1,triplet_964,9028-6375834b-c3ce-4f45-a2e4-0fd559058756,c88eb06478809180f7628281ecb18112,4629,deb0889d902f08bef51f77a6d7299806,304efa07923fc3c1c681404257d94ad9,38bdba5f6455c5ff91663a74ccd2338
419,23,pragmatic,1,triplet_714,9028-6375834b-c3ce-4f45-a2e4-0fd559058756,8affc6302970a589febad4f49b26ec52,3370,deb0889d902f08bef51f77a6d7299806,304efa07923fc3c1c681404257d94ad9,38bdba5f6455c5ff91663a74ccd2338
420,24,pragmatic,1,triplet_777,9028-6375834b-c3ce-4f45-a2e4-0fd559058756,9d63d69501b9ab9067994ca435825ef,6965,deb0889d902f08bef51f77a6d7299806,304efa07923fc3c1c681404257d94ad9,38bdba5f6455c5ff91663a74ccd2338
421,25,pragmatic,1,triplet_1154,9028-6375834b-c3ce-4f45-a2e4-0fd559058756,f5f18fccf9e16800dbd185de408ea209,4707,deb0889d902f08bef51f77a6d7299806,304efa07923fc3c1c681404257d94ad9,38bdba5f6455c5ff91663a74ccd2338
422,26,literal,1,triplet_398,9028-6375834b-c3ce-4f45-a2e4-0fd559058756,4dc7fe6e98c4db21d79b19c7c4f0e293,6896,deb0889d902f08bef51f77a6d7299806,304efa07923fc3c1c681404257d94ad9,38bdba5f6455c5ff91663a74ccd2338
423,27,pragmatic,1,triplet_615,9028-6375834b-c3ce-4f45-a2e4-0fd559058756,7263fe53bb4601efa37f3fc191551700,4620,deb0889d902f08bef51f77a6d7299806,304efa07923fc3c1c681404257d94ad9,38bdba5f6455c5ff91663a74ccd2338
424,28,pragmatic,1,triplet_790,9028-6375834b-c3ce-4f45-a2e4-0fd559058756,a07b5b7014264e0330e06a011e63236a,3689,deb0889d902f08bef51f77a6d7299806,304efa07923fc3c1c681404257d94ad9,38bdba5f6455c5ff91663a74ccd2338
425,29,pragmatic,1,triplet_753,9028-6375834b-c3ce-4f45-a2e4-0fd559058756,934f911815518a12862ec27465061d4,3487,deb0889d902f08bef51f77a6d7299806,304efa07923fc3c1c681404257d94ad9,38bdba5f6455c5ff91663a74ccd2338
426,30,literal,0,triplet_72,9028-6375834b-c3ce-4f45-a2e4-0fd559058756,9e54053a1b16299153c5215ed09cc4b0,4217,deb0889d902f08bef51f77a6d7299806,304efa07923fc3c1c681404257d94ad9,38bdba5f6455c5ff91663a74ccd2338
427,31,literal,1,triplet_647,9028-6375834b-c3ce-4f45-a2e4-0fd559058756,76dd2d9f0183e09dd835cf838a2f2758,4193,deb0889d902f08bef51f77a6d7299806,304efa07923fc3c1c681404257d94ad9,38bdba5f6455c5ff91663a74ccd2338
428,32,literal,1,triplet_982,9028-6375834b-c3ce-4f45-a2e4-0fd559058756,c9dd1e508be23628d0176f9a144100cd,4371,deb0889d902f08bef51f77a6d7299806,304efa07923fc3c1c681404257d94ad9,38bdba5f6455c5ff91663a74ccd2338
429,33,literal,0,triplet_519,9028-6375834b-c3ce-4f45-a2e4-0fd559058756,d91457217673528ef91663a74ccd2338,3720,deb0889d902f08bef51f77a6d7299806,304efa07923fc3c1c681404257d94ad9,38bdba5f6455c5ff91663a74ccd2338
430,34,pragmatic,1,triplet_382,9028-6375834b-c3ce-4f45-a2e4-0fd559058756,499c4b519c708ae84cd08aa7c510fb85,4762,deb0889d902f08bef51f77a6d7299806,304efa07923fc3c1c681404257d94ad9,38bdba5f6455c5ff91663a74ccd2338
431,35,pragmatic,0,triplet_897,9028-6375834b-c3ce-4f45-a2e4-0fd559058756,bf0ba9e2ebcfb431e6fe3612af521500,5976,deb0889d902f08bef51f77a6d7299806,304efa07923fc3c1c681404257d94ad9,38bdba5f6455c5ff91663a74ccd2338
432,36,literal,1,triplet_950,9028-6375834b-c3ce-4f45-a2e4-0fd559058756,c7dcd3fdd4ccb7563dce8e6b691b2a29,3416,deb0889d902f08bef51f77a6d7299806,304efa07923fc3c1c681404257d94ad9,38bdba5f6455c5ff91663a74ccd2338
433,37,pragmatic,1,triplet_32,9028-6375834b-c3ce-4f45-a2e4-0fd559058756,128517f2992b6fb92057e1ae1c4cc928,3686,deb0889d902f08bef51f77a6d7299806,304efa07923fc3c1c681404257d94ad9,38bdba5f6455c5ff91663a74ccd2338
434,38,pragmatic,1,triplet_91,9028-6375834b-c3ce-4f45-a2e4-0fd559058756,2282142b6b136a6f2ebeb1e6a8111f53,21826,deb0889d902f08bef51f77a6d7299806,304efa07923fc3c1c681404257d94ad9,38bdba5f6455c5ff91663a74ccd2338
435,39,literal,0,triplet_394,9028-6375834b-c3ce-4f45-a2e4-0fd559058756,3795f02c9818a7213b407f4857c15d98,5048,deb0889d902f08bef51f77a6d7299806,304efa07923fc3c1c681404257d94ad9,38bdba5f6455c5ff91663a74ccd2338
436,40,pragmatic,1,triplet_948,9028-6375834b-c3ce-4f45-a2e4-0fd559058756,c7da2d72f9927f1881dff5c2e57ad46e,5198,deb0889d902f08bef51f77a6d7299806,304efa07923fc3c1c681404257d94ad9,38bdba5f6455c5ff91663a74ccd2338
437,41,pragmatic,1,triplet_935,9028-6375834b-c3ce-4f45-a2e4-0fd559058756,c400749eaa4d10871a782a4379556c7,6511,deb0889d902f08bef51f77a6d7299806,304efa07923fc3c1c681404257d94ad9,38bdba5f6455c5ff91663a74ccd2338
438,42,pragmatic,1,triplet_1085,9028-6375834b-c3ce-4f45-a2e4-0fd559058756,e6328c1bb6b194f262e682c9809bff14,4684,deb0889d902f08bef51f77a6d7299806,304efa07923fc3c1c681404257d94ad9,38bdba5f6455c5ff91663a74ccd2338
439,43,pragmatic,1,triplet_537,9028-6375834b-c3ce-4f45-a2e4-0fd559058756,64952439f8d9e1da9c0c9824ccd078be,9531,deb0889d902f08bef51f77a6d7299806,304efa07923fc3c1c681404257d94ad9,38bdba5f6455c5ff91663a74ccd2338
440,44,pragmatic,1,triplet_1091,9028-6375834b-c3ce-4f45-a2e4-0fd559058756,e7b1407e16d9d644c681404257d94ad9,7204,deb0889d902f08bef51f77a6d7299806,304efa07923fc3c1c681404257d94ad9,38bdba5f6455c5ff91663a74ccd2338
441,45,literal,1,triplet_919,9028-6375834b-c3ce-4f45-a2e4-0fd559058756,c06a8f95fc273106b0f4a0d43d1e4c23,4783,deb0889d902f08bef51f77a6d7299806,304efa07923fc3c1c681404257d94ad9,38bdba5f6455c5ff91663a74ccd2338
442,46,literal,1,triplet_389,9028-6375834b-c3ce-4f45-a2e4-0fd559058756,4a5332f5aaa3144836b0f2a1430e993a,3757,deb0889d902f08bef51f77a6d7299806,304efa07923fc3c1c681404257d94ad9,38bdba5f6455c5ff91663a74ccd2338
443,47,literal,1,triplet_120,9028-6375834b-c3ce-4f45-a2e4-0fd559058756,280fe2696faf0f3a53e14f34c202d656,4853,deb0889d902f08bef51f77a6d7299806,304efa07923fc3c1c681404257d94ad9,38bdba5f6455c5ff91663a74ccd2338
444,48,literal,1,triplet_891,9028-6375834b-c3ce-4f45-a2e4-0fd559058756,b998016472e9dd7a9b9f2eb77f5e247e,3407,deb0889d902f08bef51f77a6d7299806,304efa07923fc3c1c681404257d94ad9,38bdba5f6455c5ff91663a74ccd2338
445,49,pragmatic,1,triplet_227,9028-6375834b-c3ce-4f45-a2e4-0fd559058756,374e76e8b8357e5f796d422781cbc933,4473,deb0889d902f08bef51f77a6d7299806,304efa07923fc3c1c681404257d94ad9,38bdba5f6455c5ff91663a74ccd2338
446,50,pragmatic,1,triplet_1194,9028-6375834b-c3ce-4f45-a2e4-0fd559058756,fead8d07aa53de5871c3cf047830ec1f,4037,deb0889d902f08bef51f77a6d7299806,304efa07923fc3c1c681404257d94ad9,38bdba5f6455c5ff91663a74ccd2338
447,51,literal,0,triplet_404,9028-6375834b-c3ce-4f45-a2e4-0fd559058756,d5bd619acad1bed3d2b12aa6a0f050b3,4584,deb0889d902f08bef51f77a6d7299806,304efa07923fc3c1c681404257d94ad9,38bdba5f6455c5ff91663a74ccd2338
448,52,literal,0,triplet_1131,9028-6375834b-c3ce-4f45-a2e4-0fd559058756,7f73cc6c1c9121a9b9f2eb77f5e247e,4037,deb0889d902f08bef51f77a6d7299806,304efa07923fc3c1c681404257d94ad9,38bdba5f6455c5ff91663a74ccd2338
449,53,literal,0,triplet_617,9028-6375834b-c3ce-4f45-a2e4-0fd559058756,1d2745e280ea2d513c8d0fdfb1cc2535,6503,deb0889d902f08bef51f77a6d7299806,304efa07923fc3c1c681404257d94ad9,38bdba5f6455c5ff91663a74ccd2338
450,54,literal,0,triplet_300,9028-6375834b-c3ce-4f45-a2e4-0fd559058756,455829a425b5f919fc93c3b1c0fca400,4971,deb0889d902f08bef51f77a6d7299806,304efa07923fc3c1c681404257d94ad9,38bdba5f6455c5ff91663a74ccd2338
451,55,literal,1,triplet_1073,9028-6375834b-c3ce-4f45-a2e4-0fd559058756,e39308cd84103a47f4b6538438a0b930,3935,deb0889d902f08bef51f77a6d7299806,304efa07923fc3c1c681404257d94ad9,38bdba5f6455c5ff91663a74ccd2338
452,0,pragmatic,0,triplet_95,7683-a728429c-0d98-4d6e-aa2b-d5cfa54b169a,bc184c3cbe3349b19fb4103277a6b93,10500,deb0889d902f08bef51f77a6d7299806,304efa07923fc3c1c681404257d94ad9,38bdba5f6455c5ff91663a74ccd2338
453,1,pragmatic,1,triplet_657,7683-a728429c-0d98-4d6e-aa2b-d5cfa54b169a,79397634d362eaded96cac5d008c9fc3,7280,deb0889d902f08bef51f77a6d7299806,304efa07923fc3c1c681404257d94ad9,38bdba5f6455c5ff91663a74ccd2338
454,2,pragmatic,1,triplet_1158,7683-a728429c-0d98-4d6e-aa2b-d5cfa54b169a,f6d1ecef43ed4eeb907f4a296134a0cc,4381,deb0889d902f08bef51f77a6d7299806,304efa07923fc3c1c681404257d94ad9,38bdba5f6455c5ff91663a74ccd2338
455,3,literal,0,triplet_696,7683-a728429c-0d98-4d6e-aa2b-d5cfa54b169a,fe224defdf08a99a3002761e7a3ba3bd,5515,deb0889d902f08bef51f77a6d7299806,304efa07923fc3c1c681404257d94ad9,38bdba5f6455c5ff91663a74ccd2338
456,4,pragmatic,1,triplet_484,7683-a728429c-0d98-4d6e-aa2b-d5cfa54b169a,5c4e1a58eeb3171dad8af6714b643432,4160,deb0889d902f08bef51f77a6d7299806,304efa07923fc3c1c681404257d94ad9,38bdba5f6455c5ff91663a74ccd2338
457,5,literal,0,triplet_970,7683-a728429c-0d98-4d6e-aa2b-d5cfa54b169a,74625aaed8902197f51f77a6d7299806,4219,deb0889d902f08bef51f77a6d7299806,304efa07923fc3c1c681404257d94ad9,38bdba5f6455c5ff91663a74ccd2338
458,6,pragmatic,1,triplet_1198,7683-a728429c-0d98-4d6e-aa2b-d5cfa54b169a,ffdc46ab1cfe759ce6fe3612af521500,4181,deb0889d902f08bef51f77a6d7299806,304efa07923fc3c1c681404257d94ad9,38bdba5f6455c5ff91663a74ccd2338
459,7,pragmatic,0,triplet_102,7683-a728429c-0d98-4d6e-aa2b-d5cfa54b169a,6584413da69096db65ba78ad9601cf1b,4432,deb0889d902f08bef51f77a6d7299806,304efa07923fc3c1c681404257d94ad9,38bdba5f6455c5ff91663a74ccd2338
460,8,pragmatic,1,triplet_377,7683-a728429c-0d98-4d6e-aa2b-d5cfa54b169a,497f67c006770b9f94e98ee4fdfd7464,4595,deb0889d902f08bef51f77a6d7299806,304efa07923fc3c1c681404257d94ad9,38bdba5f6455c5ff91663a74ccd2338
461,9,literal,1,triplet_707,7683-a728429c-0d98-4d6e-aa2b-d5cfa54b169a,87c742a186ef731b464bb3035358ab7a,3489,deb0889d902f08bef51f77a6d7299806,304efa07923fc3c1c681404257d94ad9,38bdba5f6455c5ff91663a74ccd2338
462,10,pragmatic,1,triplet_508,7683-a728429c-0d98-4d6e-aa2b-d5cfa54b169a,5e6d8f9275fc311fb7c42e403b7689ad,3412,deb0889d902f08bef51f77a6d7299806,304efa07923fc3c1c681404257d94ad9,38bdba5f6455c5ff91663a74ccd2338
463,11,pragmatic,0,triplet_1102,7683-a728429c-0d98-4d6e-aa2b-d5cfa54b169a,fbee8c9e5b8c0c19492d9da2668ec34c,6425,deb0889d902f08bef51f77a6d7299806,304efa07923fc3c1c681404257d94ad9,38bdba5f6455c5ff91663a74ccd2338
464,12,pragmatic,1,triplet_344,7683-a728429c-0d98-4d6e-aa2b-d5cfa54b169a,46f6a6e0f239282fc8687ff9b0b4e4ac,3974,deb0889d902f08bef51f77a6d7299806,304efa07923fc3c1c681404257d94ad9,38bdba5f6455c5ff91663a74ccd2338
465,13,pragmatic,0,triplet_1148,7683-a728429c-0d98-4d6e-aa2b-d5cfa54b169a,7dc91406f30074777b707c797539b200,7152,deb0889d902f08bef51f77a6d7299806,304efa07923fc3c1c681404257d94ad9,38bdba5f6455c5ff91663a74ccd2338
466,14,literal,1,triplet_298,7683-a728429c-0d98-4d6e-aa2b-d5cfa54b169a,4217f023367a28b06747dd1c5ab1ba16,7981,deb0889d902f08bef51f77a6d7299806,304efa07923fc3c1c681404257d94ad9,38bdba5f6455c5ff91663a74ccd2338
467,15,literal,1,triplet_545,7683-a728429c-0d98-4d6e-aa2b-d5cfa54b169a,655102add1989c1064fad3c7b88e6060,3598,deb0889d902f08bef51f77a6d7299806,304efa07923fc3c1c681404257d94ad9,38bdba5f6455c5ff91663a74ccd2338
468,16,literal,1,triplet_994,7683-a728429c-0d98-4d6e-aa2b-d5cfa54b169a,d15ccf2af52a95f619fb4103277a6b93,4325,deb0889d902f08bef51f77a6d7299806,304efa07923fc3c1c681404257d94ad9,38bdba5f6455c5ff91663a74ccd2338
469,17,literal,1,triplet_1120,7683-a728429c-0d98-4d6e-aa2b-d5cfa54b169a,ef1824754ae554af83b6e0255ae357be,3752,deb0889d902f08bef51f77a6d7299806,304efa07923fc3c1c681404257d94ad9,38bdba5f6455c5ff91663a74ccd2338
470,18,pragmatic,1,triplet_29,7683-a728429c-0d98-4d6e-aa2b-d5cfa54b169a,124ef426dfa0aa38ff6069724068a578,6833,deb0889d902f08bef51f77a6d7299806,304efa07923fc3c1c681404257d94ad9,38bdba5f6455c5ff91663a74ccd2338
471,19,pragmatic,1,triplet_1122,7683-a728429c-0d98-4d6e-aa2b-d5cfa54b169a,efe76021aa616a41f51fa0238791f5dc,3576,deb0889d902f08bef51f77a6d7299806,304efa07923fc3c1c681404257d94ad9,38bdba5f6455c5ff91663a74ccd2338
472,20,literal,1,triplet_1110,7683-a728429c-0d98-4d6e-aa2b-d5cfa54b169a,ec5d90a37ec99980e2b417d08f69e019,5443,deb0889d902f08bef51f77a6d7299806,304efa07923fc3c1c681404257d94ad9,38bdba5f6455c5ff91663a74ccd2338
473,21,pragmatic,1,triplet_330,7683-a728429c-0d98-4d6e-aa2b-d5cfa54b169a,453a678dec4e9d40f36ea1eb6542fe7e,4394,deb0889d902f08bef51f77a6d7299806,304efa07923fc3c1c681404257d94ad9,38bdba5f6455c5ff91663a74ccd2338
474,22,pragmatic,1,triplet_1162,7683-a728429c-0d98-4d6e-aa2b-d5cfa54b169a,f7dec3c72af895884cafc8d32c041834,4556,deb0889d902f08bef51f77a6d7299806,304efa07923fc3c1c681404257d94ad9,38bdba5f6455c5ff91663a74ccd2338
475,23,literal,1,triplet_623,7683-a728429c-0d98-4d6e-aa2b-d5cfa54b169a,74625aaed8902197f51f77a6d7299806,4288,deb0889d902f08bef51f77a6d7299806,304efa07923fc3c1c681404257d94ad9,38bdba5f6455c5ff91663a74ccd2338
476,24,pragmatic,1,triplet_93,7683-a728429c-0d98-4d6e-aa2b-d5cfa54b169a,22f030ce09693f4c65c99f3aded15b93,4114,deb0889d902f08bef51f77a6d7299806,304efa07923fc3c1c681404257d94ad9,38bdba5f6455c5ff91663a74ccd2338
477,25,pragmatic,1,triplet_885,7683-a728429c-0d98-4d6e-aa2b-d5cfa54b169a,b944154f00e7cf1fad484915511ccff6,4647,deb0889d902f08bef51f77a6d7299806,304efa07923fc3c1c681404257d94ad9,38bdba5f6455c5ff91663a74ccd2338
478,26,pragmatic,0,triplet_413,7683-a728429c-0d98-4d6e-aa2b-d5cfa54b169a,609746ebe63abc2c2f38c0d2792fb5e,7117,deb0889d902f08bef51f77a6d7299806,304efa07923fc3c1c681404257d94ad9,38bdba5f6455c5ff91663a74ccd2338
479,27,pragmatic,1,triplet_532,7683-a728429c-0d98-4d6e-aa2b-d5cfa54b169a,63b5ef650f1020eb7fa0ee8efe00d1ee,3741,deb0889d902f08bef51f77a6d7299806,304efa07923fc3c1c681404257d94ad9,38bdba5f6455c5ff91663a74ccd2338
480,28,pragmatic,1,triplet_110,7683-a728429c-0d98-4d6e-aa2b-d5cfa54b169a,24c0fc01144790be305e886266e302e1,4435,deb0889d902f08bef51f77a6d7299806,304efa07923fc3c1c681404257d94ad9,38bdba5f6455c5ff91663a74ccd2338
